Trial No;Subject ID;Reaction Time;Block No;Stimulus Number;Parity;Correct Response;Actual Response;Response Time
1;07;1,954617;1;4;Even;Right;Right;1,328287
2;07;0,8337815;1;9;Odd;Left;Left;0,5769929
3;07;1,081798;1;1;Odd;Left;Left;1,061441
4;07;0,7371754;1;7;Odd;Left;Left;0,725812
5;07;0,7490035;1;3;Odd;Left;Left;0,2575118
6;07;0,9840707;1;6;Even;Right;Right;0,5244766
7;07;0,792784;1;8;Even;Right;Right;0,2345804
8;07;0,7326216;1;2;Even;Right;Right;0,2162722
10;07;0,7074538;1;3;Odd;Left;Left;0,1788858
11;07;0,7573456;1;4;Even;Right;Right;0,2468197
12;07;0,7035244;1;9;Odd;Left;Left;0,2248476
13;07;0,8930917;1;6;Even;Right;Right;0,4567955
14;07;5,707342;1;2;Even;Right;Right;1,05654
15;07;0,9527575;1;8;Even;Right;Right;0,9422474
16;07;0,8368965;1;1;Odd;Left;Left;0,2595819
17;07;0,8098472;1;7;Odd;Left;Left;0,7989357
19;07;0,9802998;1;1;Odd;Left;Left;0,2352924
20;07;0,7814896;1;2;Even;Right;Right;0,2229986
21;07;0,6914461;1;6;Even;Right;Right;0,2006639
22;07;0,6818773;1;4;Even;Right;Right;0,2128762
23;07;0,7094037;1;9;Odd;Left;Left;0,2840208
24;07;0,7373171;1;3;Odd;Left;Left;0,2347926
25;07;0,7107797;1;7;Odd;Left;Left;0,2246279
26;07;0,8818901;1;8;Even;Right;Right;0,4026236
28;07;0,7787715;1;4;Even;Right;Right;0,2227072
29;07;0,9047023;1;3;Odd;Left;Left;0,2570003
30;07;1,058169;1;8;Even;Right;Right;0,3441107
31;07;0,9145917;1;1;Odd;Left;Left;0,3241976
32;07;0,7368526;1;9;Odd;Left;Left;0,2345117
33;07;0,7198491;1;7;Odd;Left;Left;0,2452758
34;07;1,899705;1;2;Even;Right;Right;1,452257
35;07;0,7592242;1;6;Even;Right;Right;0,1786419
37;07;0,681352;1;2;Even;Right;Right;0,2234597
38;07;1,039279;1;8;Even;Right;Right;0,179294
39;07;0,7571909;1;6;Even;Right;Right;0,613466
40;07;0,9683465;1;7;Odd;Left;Left;0,4346796
41;07;0,9604962;1;4;Even;Right;Right;0,9494225
42;07;0,9057164;1;1;Odd;Left;Left;0,3808976
43;07;1,038902;1;3;Odd;Left;Right;1,027232
44;07;1,038096;1;9;Odd;Left;Left;1,027448
46;07;0,7472287;1;1;Odd;Left;Left;0,2347671
47;07;0,7706895;1;7;Odd;Left;Left;0,2222902
48;07;0,9464124;1;4;Even;Right;Right;0,4898884
49;07;0,8156649;1;8;Even;Right;Right;0,2018594
50;07;0,660423;1;2;Even;Right;Right;0,2129179
51;07;0,762959;1;3;Odd;Left;Left;0,2153222
52;07;0,9571378;1;6;Even;Right;Right;0,1867885
53;07;0,8380193;1;9;Odd;Left;Left;0,2457672
55;07;0,6971518;1;2;Even;Right;Right;0,1789772
56;07;0,735891;1;6;Even;Right;Right;0,2010134
57;07;0,8217933;1;3;Odd;Left;Left;0,6998642
58;07;0,8150759;1;1;Odd;Left;Left;0,3244699
59;07;0,6588984;1;4;Even;Right;Right;0,5918307
60;07;0,9946498;1;9;Odd;Left;Left;0,2459944
61;07;1,821053;1;8;Even;Right;Right;1,205078
62;07;0,8050902;1;7;Odd;Left;Left;0,2682893
64;07;1,463098;1;2;Even;Right;Right;1,451825
65;07;0,7587116;1;1;Odd;Left;Left;0,7150454
66;07;0,8172938;1;8;Even;Right;Right;0,2253547
67;07;0,7937223;1;9;Odd;Left;Left;0,7823964
68;07;0,7013692;1;4;Even;Right;Right;0,6909539
69;07;1,115913;1;6;Even;Right;Right;1,104814
70;07;0,8929103;1;3;Odd;Left;Left;0,6208689
71;07;0,8924581;1;7;Odd;Left;Left;0,8828907
73;07;0,837591;1;1;Odd;Left;Left;0,2234147
74;07;0,8600648;1;2;Even;Right;Right;0,8472289
75;07;0,7577733;1;6;Even;Right;Right;0,200613
76;07;1,943318;1;3;Odd;Left;Left;1,931882
77;07;0,9910371;1;9;Odd;Left;Left;0,9806628
78;07;0,7373917;1;7;Odd;Left;Left;0,5252912
79;07;3,44135;1;4;Even;Right;Right;2,836298
80;07;0,9077715;1;8;Even;Right;Right;0,2000425
82;07;0,7376751;1;7;Odd;Left;Left;0,2259769
83;07;0,711506;1;4;Even;Right;Right;0,1784574
84;07;0,6815469;1;2;Even;Right;Right;0,1999427
85;07;2,130831;1;3;Odd;Left;Left;1,717771
86;07;0,7930924;1;9;Odd;Left;Left;0,2236166
87;07;0,6720154;1;8;Even;Right;Right;0,1678729
88;07;0,8610891;1;1;Odd;Left;Left;0,2813888
89;07;0,6811163;1;6;Even;Right;Right;0,1788462
91;07;0,7591987;1;8;Even;Right;Left;0,3349224
92;07;0,8168492;1;2;Even;Right;Right;0,5818409
93;07;0,9178002;1;3;Odd;Left;Left;0,3580094
94;07;2,535552;1;7;Odd;Left;Left;1,991273
95;07;0,7991642;1;9;Odd;Left;Left;0,2690324
96;07;0,7517388;1;4;Even;Right;Right;0,2341575
97;07;1,741053;1;1;Odd;Left;Left;1,262534
98;07;0,9618607;1;6;Even;Right;Right;0,2469707
100;07;0,7582498;1;8;Even;Right;Right;0,7469952
101;07;0,8355033;1;2;Even;Right;Right;0,2567382
102;07;0,7375368;1;7;Odd;Left;Left;0,2853286
103;07;0,7927621;1;4;Even;Right;Right;0,3346061
104;07;0,9370121;1;1;Odd;Left;Left;0,8724809
105;07;0,9145872;1;3;Odd;Left;Left;0,9023326
106;07;0,8279446;1;9;Odd;Left;Left;0,2258999
107;07;0,7036721;1;6;Even;Right;Right;0,2650757
109;07;0,7257628;1;3;Odd;Left;Left;0,2681155
110;07;0,8126237;1;2;Even;Right;Right;0,777446
111;07;0,7823273;1;9;Odd;Left;Left;0,2573461
112;07;0,9584815;1;1;Odd;Left;Left;0,5244238
113;07;1,050626;1;4;Even;Right;Right;0,2354289
114;07;1,249996;1;8;Even;Right;Right;0,5362545
115;07;0,9349313;1;6;Even;Right;Right;0,2446886
116;07;0,8392825;1;7;Odd;Left;Left;0,7056141
118;07;0,693659;1;2;Even;Right;Right;0,2344241
119;07;1,060726;1;3;Odd;Left;Left;0,4241818
120;07;0,9153983;1;4;Even;Right;Right;0,9043815
121;07;0,9382212;1;8;Even;Right;Right;0,2785645
122;07;0,9582865;1;1;Odd;Left;Left;0,3328807
123;07;0,7260697;1;9;Odd;Left;Left;0,2570318
124;07;1,093611;1;7;Odd;Left;Left;0,236434
125;07;0,8372678;1;6;Even;Right;Right;0,2454836
127;07;1,095026;1;3;Odd;Left;Left;0,5691918
128;07;0,7793825;1;2;Even;Right;Right;0,2225184
129;07;0,7371264;1;9;Odd;Left;Left;0,2576484
130;07;0,9803922;1;1;Odd;Left;Left;0,425
131;07;1,642404;1;8;Even;Right;Right;1,632068
132;07;0,7254528;1;6;Even;Right;Right;0,2427104
133;07;0,7235851;1;7;Odd;Left;Left;0,2647705
134;07;0,6810623;1;4;Even;Right;Right;0,2117791
Trial No;Subject ID;Reaction Time;Block No;Stimulus Number;Parity;Correct Response;Actual Response;Response Time
1;07;1,549704;2;1;Odd;Right;Right;1,538495
2;07;0,6825612;2;4;Even;Left;Left;0,6715245
3;07;0,6691991;2;7;Odd;Right;Right;0,3238255
4;07;0,8472108;2;6;Even;Left;Left;0,256205
5;07;0,7038541;2;2;Even;Left;Left;0,2362292
6;07;0,6513807;2;9;Odd;Right;Right;0,2142046
7;07;1,656811;2;8;Even;Left;Left;1,143903
8;07;1,696845;2;3;Odd;Right;Right;1,686463
10;07;0,7697256;2;6;Even;Left;Left;0,2571403
11;07;0,7495409;2;8;Even;Left;Left;0,2802951
12;07;0,7383926;2;2;Even;Left;Left;0,5822702
13;07;2,172384;2;1;Odd;Right;Right;2,072825
14;07;0,701952;2;3;Odd;Right;Right;0,2089879
15;07;1,831722;2;7;Odd;Right;Right;1,373748
16;07;1,873623;2;4;Even;Left;Left;1,315187
17;07;0,7370346;2;9;Odd;Right;Right;0,2669502
19;07;1,517925;2;6;Even;Left;Left;1,0146
20;07;0,7599024;2;8;Even;Left;Left;0,2582437
21;07;0,6317266;2;4;Even;Left;Left;0,2581047
22;07;0,6146719;2;9;Odd;Right;Right;0,201226
23;07;0,7362072;2;2;Even;Left;Left;0,2454307
24;07;0,7941796;2;3;Odd;Right;Right;0,782445
25;07;0,892237;2;1;Odd;Right;Right;0,5364882
26;07;0,7599559;2;7;Odd;Right;Right;0,2447013
28;07;0,652165;2;3;Odd;Right;Right;0,2232672
29;07;0,867313;2;1;Odd;Right;Right;0,2190489
30;07;0,6831472;2;2;Even;Left;Left;0,6713882
31;07;0,6582413;2;6;Even;Left;Left;0,2238012
32;07;0,6601543;2;4;Even;Left;Left;0,2014779
33;07;0,8830793;2;7;Odd;Right;Right;0,605566
34;07;0,795085;2;8;Even;Left;Left;0,6272074
35;07;0,7560213;2;9;Odd;Right;Right;0,2209605
37;07;0,7027261;2;2;Even;Left;Left;0,6922154
38;07;1,54177;2;3;Odd;Right;Right;1,5272
39;07;1,180863;2;1;Odd;Right;Right;0,2263507
40;07;0,938148;2;8;Even;Left;Left;0,4580136
41;07;0,7903726;2;7;Odd;Right;Right;0,2172104
42;07;1,498353;2;9;Odd;Right;Right;1,039012
43;07;0,6762328;2;4;Even;Left;Left;0,2442075
44;07;0,7488254;2;6;Even;Left;Left;0,6371281
46;07;0,6827528;2;9;Odd;Right;Right;0,20222
47;07;0,709749;2;7;Odd;Right;Right;0,3183741
48;07;0,9602049;2;6;Even;Left;Left;0,2342087
49;07;0,8043708;2;8;Even;Left;Left;0,2457448
50;07;0,6552061;2;2;Even;Left;Left;0,2424647
51;07;0,63811;2;4;Even;Left;Left;0,3350241
52;07;0,8917903;2;3;Odd;Right;Right;0,7801428
53;07;0,6164749;2;1;Odd;Right;Right;0,200828
55;07;0,715404;2;4;Even;Left;Left;0,201983
56;07;0,8133773;2;7;Odd;Right;Right;0,2283261
57;07;0,9221196;2;1;Odd;Right;Right;0,912226
58;07;0,6992751;2;6;Even;Left;Left;0,2195853
59;07;0,6593883;2;8;Even;Left;Left;0,2335126
60;07;0,6583455;2;2;Even;Left;Left;0,6466468
61;07;0,8046944;2;9;Odd;Right;Right;0,2243032
62;07;0,604486;2;3;Odd;Right;Right;0,2011203
64;07;0,9789021;2;9;Odd;Right;Right;0,968149
65;07;0,6241993;2;7;Odd;Right;Right;0,1788839
66;07;0,7144418;2;8;Even;Left;Left;0,2139927
67;07;0,6747039;2;4;Even;Left;Left;0,4848478
68;07;0,6600521;2;1;Odd;Right;Right;0,2795053
69;07;0,5814269;2;3;Odd;Right;Right;0,2010607
70;07;0,6480302;2;6;Even;Left;Left;0,2011153
71;07;0,7596403;2;2;Even;Left;Left;0,2568015
73;07;0,8610553;2;8;Even;Left;Left;0,4265317
74;07;0,7367471;2;3;Odd;Right;Right;0,2452589
75;07;0,7212664;2;4;Even;Left;Left;0,2186669
76;07;0,9160367;2;6;Even;Left;Left;0,2116
77;07;0,6797041;2;1;Odd;Right;Right;0,2140238
78;07;0,6486834;2;2;Even;Left;Left;0,2136309
79;07;1,550193;2;7;Odd;Right;Right;1,49337
80;07;0,6589056;2;9;Odd;Right;Right;0,1980862
82;07;1,932259;2;2;Even;Left;Left;1,85437
83;07;2,064665;2;4;Even;Left;Left;1,640683
84;07;0,7729696;2;6;Even;Left;Left;0,2698523
85;07;0,8614117;2;8;Even;Left;Left;0,4480778
86;07;0,7257138;2;7;Odd;Right;Right;0,2566519
87;07;0,714623;2;1;Odd;Right;Right;0,2334185
88;07;0,7168522;2;3;Odd;Right;Right;0,2559777
89;07;0,7240711;2;9;Odd;Right;Right;0,2006042
91;07;1,502219;2;7;Odd;Right;Right;0,9839218
92;07;0,9866778;2;2;Even;Left;Left;0,6143439
93;07;0,8388504;2;3;Odd;Right;Right;0,2351079
94;07;1,133297;2;1;Odd;Right;Right;0,2350404
95;07;0,7469393;2;9;Odd;Right;Right;0,2343144
96;07;0,914813;2;6;Even;Left;Left;0,2350313
97;07;0,700088;2;4;Even;Left;Left;0,2151076
98;07;1,076397;2;8;Even;Left;Left;1,066819
100;07;0,7822492;2;9;Odd;Right;Right;0,7705812
101;07;0,6726751;2;4;Even;Left;Left;0,6411566
102;07;0,6937459;2;6;Even;Left;Left;0,6824087
103;07;0,8146988;2;1;Odd;Right;Right;0,2570518
104;07;1,564642;2;2;Even;Left;Left;1,205993
105;07;0,7373288;2;3;Odd;Right;Right;0,1756011
106;07;0,7278597;2;8;Even;Left;Left;0,1946669
107;07;0,8353231;2;7;Odd;Right;Right;0,2413578
109;07;0,9730887;2;3;Odd;Right;Right;0,7822172
110;07;1,039329;2;7;Odd;Right;Right;0,2340517
111;07;0,7358298;2;1;Odd;Right;Right;0,199659
112;07;0,7182198;2;9;Odd;Right;Right;0,2348439
113;07;0,8370812;2;6;Even;Left;Left;0,2341276
114;07;0,5946196;2;2;Even;Left;Left;0,2590786
115;07;0,7044467;2;8;Even;Left;Left;0,2455145
116;07;0,6253563;2;4;Even;Left;Left;0,2463872
118;07;0,6118682;2;2;Even;Left;Left;0,600736
119;07;0,69189;2;6;Even;Left;Left;0,4242743
120;07;0,9590358;2;9;Odd;Right;Right;0,9483706
121;07;0,6952315;2;4;Even;Left;Left;0,186749
122;07;0,7384223;2;3;Odd;Right;Right;0,2347424
123;07;0,7602732;2;1;Odd;Right;Right;0,2013513
124;07;0,7961072;2;8;Even;Left;Left;0,2059159
125;07;1,363095;2;7;Odd;Right;Right;0,8278314
127;07;0,7821715;2;2;Even;Left;Left;0,2455456
128;07;2,055064;2;3;Odd;Right;Right;1,51853
129;07;0,7528632;2;7;Odd;Right;Right;0,552467
130;07;0,8368605;2;6;Even;Left;Left;0,4357566
131;07;0,9493324;2;1;Odd;Right;Right;0,4921469
132;07;1,273469;2;8;Even;Left;Left;0,2554797
133;07;0,8147454;2;9;Odd;Right;Right;0,2346754
134;07;0,6796827;2;4;Even;Left;Left;0,6240112

