Trial No;Subject ID;Reaction Time;Block No;Stimulus Number;Parity;Correct Response;Actual Response;Response Time
1;04;3,289786;2;8;Even;Left;Right;0,6194539
2;04;1,562591;2;4;Even;Left;Left;0,2582262
3;04;1,217836;2;3;Odd;Right;Right;0,4144238
4;04;1,463252;2;2;Even;Left;Left;0,3261056
5;04;1,295832;2;6;Even;Left;Left;0,3578998
6;04;1,293028;2;1;Odd;Right;Right;0,3852904
7;04;1,363208;2;7;Odd;Right;Right;0,3813079
8;04;2,055533;2;9;Odd;Right;Right;1,175528
10;04;1,036664;2;2;Even;Left;Left;0,3107948
11;04;2,021064;2;9;Odd;Right;Right;0,9263151
12;04;1,138752;2;1;Odd;Right;Right;0,4224374
13;04;3,898122;2;3;Odd;Right;Right;3,083577
14;04;1,09345;2;8;Even;Left;Left;0,3035813
15;04;2,179425;2;4;Even;Left;Left;1,175348
16;04;1,017393;2;7;Odd;Right;Right;0,2678767
17;04;2,156656;2;6;Even;Left;Right;1,273795
19;04;1,142517;2;4;Even;Left;Left;0,2692251
20;04;1,171902;2;8;Even;Left;Left;0,3580311
21;04;1,184312;2;2;Even;Left;Left;0,3844531
22;04;1,149654;2;3;Odd;Right;Right;0,3457363
23;04;2,469393;2;9;Odd;Right;Right;0,5254142
24;04;1,083977;2;6;Even;Left;Left;0,2569012
25;04;2,079;2;7;Odd;Right;Right;1,174755
26;04;1,685293;2;1;Odd;Right;Right;0,4022781
28;04;1,754982;2;2;Even;Left;Left;0,3465407
29;04;2,176599;2;9;Odd;Right;Right;0,6142244
30;04;1,307459;2;6;Even;Left;Left;0,446703
31;04;1,934341;2;4;Even;Left;Left;0,4372467
32;04;1,707017;2;1;Odd;Right;Right;0,7908193
33;04;1,463287;2;8;Even;Left;Left;0,3676705
34;04;1,790007;2;7;Odd;Right;Right;0,4492434
35;04;1,248876;2;3;Odd;Right;Left;0,4494662
37;04;1,328631;2;6;Even;Left;Left;0,4149517
38;04;1,610059;2;4;Even;Left;Left;0,437071
39;04;1,570268;2;1;Odd;Right;Right;0,4877419
40;04;1,867319;2;7;Odd;Right;Right;0,4125768
41;04;1,853807;2;2;Even;Left;Left;0,4129492
42;04;2,579233;2;3;Odd;Right;Right;1,341932
43;04;1,137219;2;8;Even;Left;Left;0,4013973
44;04;3,125533;2;9;Odd;Right;Right;1,159816
46;04;1,718695;2;8;Even;Left;Left;0,456923
47;04;1,177528;2;4;Even;Left;Left;0,4230131
48;04;1,932647;2;7;Odd;Right;Right;1,093671
49;04;1,216966;2;9;Odd;Right;Right;0,4026862
50;04;1,817203;2;1;Odd;Right;Right;1,058943
51;04;1,473826;2;2;Even;Left;Left;0,2783927
52;04;1,896805;2;6;Even;Left;Left;0,9707699
53;04;1,885233;2;3;Odd;Right;Right;0,9252698
55;04;1,295711;2;1;Odd;Right;Right;0,538632
56;04;1,876355;2;3;Odd;Right;Right;1,252994
57;04;1,487749;2;7;Odd;Right;Right;0,7180713
58;04;1,035982;2;8;Even;Left;Left;0,2575674
59;04;1,120143;2;2;Even;Left;Left;0,3820494
60;04;0,9611041;2;6;Even;Left;Left;0,2567241
61;04;1,230322;2;4;Even;Left;Left;0,473319
62;04;1,66424;2;9;Odd;Right;Right;0,67019
64;04;3,19389;2;1;Odd;Right;Right;1,026238
65;04;1,307305;2;2;Even;Left;Left;0,346747
66;04;1,440512;2;3;Odd;Right;Right;0,5404144
67;04;1,161288;2;6;Even;Left;Left;0,3463664
68;04;1,281309;2;9;Odd;Right;Right;0,4013827
69;04;5,712358;2;8;Even;Left;Left;4,95573
70;04;2,37685;2;7;Odd;Right;Right;1,66395
71;04;1,218022;2;4;Even;Left;Left;0,379079
73;04;1,316932;2;3;Odd;Right;Right;0,3808448
74;04;1,400602;2;2;Even;Left;Left;0,3266761
75;04;2,109568;2;1;Odd;Right;Right;1,192098
76;04;1,39112;2;9;Odd;Right;Right;0,5981643
77;04;1,464297;2;8;Even;Left;Left;0,5371181
78;04;1,275993;2;6;Even;Left;Left;0,4167868
79;04;1,274858;2;7;Odd;Right;Right;0,4130121
80;04;1,173357;2;4;Even;Left;Left;0,290001
82;04;2,41333;2;7;Odd;Right;Right;1,379298
83;04;1,395962;2;2;Even;Left;Left;0,3415285
84;04;1,503547;2;1;Odd;Right;Right;0,543
85;04;1,203209;2;8;Even;Left;Left;0,3778239
86;04;2,120811;2;9;Odd;Right;Right;1,254984
87;04;1,141194;2;4;Even;Left;Left;0,3701453
88;04;1,240465;2;6;Even;Left;Left;0,4144441
89;04;1,619699;2;3;Odd;Right;Right;0,4915754
91;04;1,853835;2;9;Odd;Right;Right;0,4589025
92;04;1,196476;2;4;Even;Left;Left;0,3808065
93;04;1,352159;2;7;Odd;Right;Right;0,5151254
94;04;1,495917;2;3;Odd;Right;Right;0,498987
95;04;1,037971;2;6;Even;Left;Left;0,2793741
96;04;2,15432;2;2;Even;Left;Left;0,3335766
97;04;2,487387;2;1;Odd;Right;Right;1,594798
98;04;1,301776;2;8;Even;Left;Left;0,4039751
100;04;1,918699;2;4;Even;Left;Left;1,058815
101;04;1,955626;2;3;Odd;Right;Right;1,263078
102;04;2,758062;2;1;Odd;Right;Right;0,5599282
103;04;1,152435;2;8;Even;Left;Left;0,3474209
104;04;1,087896;2;6;Even;Left;Left;0,4160848
105;04;1,909123;2;9;Odd;Right;Right;1,071804
106;04;2,133294;2;7;Odd;Right;Right;1,241716
107;04;2,759788;2;2;Even;Left;Left;0,9489487
109;04;1,376491;2;8;Even;Left;Left;0,3811415
110;04;1,28852;2;9;Odd;Right;Right;0,4527958
111;04;1,50891;2;6;Even;Left;Left;0,3636066
112;04;2,445659;2;2;Even;Left;Left;1,441684
113;04;3,004986;2;7;Odd;Right;Right;1,977608
114;04;1,674414;2;4;Even;Left;Left;0,5585319
115;04;2,877928;2;1;Odd;Right;Right;1,866012
116;04;3,943781;2;3;Odd;Right;Right;2,223446
118;04;1,885538;2;9;Odd;Right;Right;0,9692146
119;04;1,161712;2;6;Even;Left;Left;0,3235105
120;04;2,289581;2;1;Odd;Right;Right;1,209923
121;04;1,662794;2;2;Even;Left;Left;0,4232812
122;04;1,553345;2;8;Even;Left;Left;0,5357302
123;04;1,30666;2;7;Odd;Right;Right;0,4827358
124;04;2,45611;2;3;Odd;Right;Right;0,4790239
125;04;1,162606;2;4;Even;Left;Left;0,3279682
127;04;1,084354;2;4;Even;Left;Left;0,3581912
128;04;1,058216;2;2;Even;Left;Left;0,3927137
129;04;2,089483;2;7;Odd;Right;Right;1,356166
130;04;1,843657;2;8;Even;Left;Left;0,7055209
131;04;1,232082;2;3;Odd;Right;Right;0,502754
132;04;1,506131;2;1;Odd;Right;Right;0,4796245
133;04;1,226871;2;6;Even;Left;Left;0,3639938
134;04;1,319991;2;9;Odd;Right;Right;0,4923232

