Trial No;Subject ID;Reaction Time;Block No;Stimulus Number;Parity;Correct Response;Actual Response;Response Time
1;08;1,407123;2;4;Even;Left;Left;1,361611
2;08;0,8616028;2;8;Even;Left;Left;0,8505002
3;08;0,7552188;2;7;Odd;Right;Right;0,6985665
4;08;0,7139642;2;6;Even;Left;Left;0,7033307
5;08;0,7353998;2;3;Odd;Right;Right;0,703203
6;08;0,79376;2;9;Odd;Right;Right;0,7597485
7;08;0,7951986;2;1;Odd;Right;Right;0,7833196
8;08;0,7831181;2;2;Even;Left;Left;0,749181
10;08;2,422163;2;3;Odd;Right;Left;2,366631
11;08;1,272616;2;8;Even;Left;Left;1,220397
12;08;0,8101731;2;9;Odd;Right;Right;0,7991251
13;08;0,8046612;2;6;Even;Left;Left;0,760955
14;08;0,7814609;2;2;Even;Left;Left;0,7592399
15;08;0,7364393;2;4;Even;Left;Left;0,7259218
16;08;0,737599;2;7;Odd;Right;Right;0,7262795
17;08;0,8041078;2;1;Odd;Right;Right;0,7371229
19;08;0,7555736;2;3;Odd;Right;Right;0,7336435
20;08;0,7380996;2;2;Even;Left;Left;0,72568
21;08;0,8822836;2;6;Even;Left;Left;0,8709168
22;08;0,6831937;2;1;Odd;Right;Right;0,6602982
23;08;1,038044;2;9;Odd;Right;Right;1,004681
24;08;0,759367;2;4;Even;Left;Left;0,6807989
25;08;0,7601755;2;8;Even;Left;Left;0,7158271
26;08;0,7701942;2;7;Odd;Right;Right;0,7360361
28;08;1,016494;2;3;Odd;Right;Right;0,9522721
29;08;0,8039439;2;2;Even;Left;Left;0,7919497
30;08;0,7982396;2;1;Odd;Right;Right;0,7866337
31;08;1,004889;2;7;Odd;Right;Right;0,9586018
32;08;0,7029653;2;4;Even;Left;Left;0,6928376
33;08;0,7931357;2;8;Even;Left;Left;0,7818387
34;08;0,7148328;2;6;Even;Left;Left;0,703409
35;08;0,6804641;2;9;Odd;Right;Right;0,6688942
37;08;0,8315921;2;1;Odd;Right;Right;0,819526
38;08;0,6473277;2;8;Even;Left;Left;0,6367823
39;08;0,8397647;2;3;Odd;Right;Right;0,8277288
40;08;0,7604606;2;7;Odd;Right;Right;0,7490923
41;08;0,8604646;2;9;Odd;Right;Right;0,849478
42;08;0,7253022;2;6;Even;Left;Left;0,7150002
43;08;0,7926974;2;2;Even;Left;Left;0,7813233
44;08;0,722684;2;4;Even;Left;Left;0,7124327
46;08;0,7276724;2;7;Odd;Right;Right;0,7163358
47;08;0,8047633;2;1;Odd;Right;Right;0,7596563
48;08;0,7834595;2;4;Even;Left;Left;0,7723347
49;08;0,7592351;2;6;Even;Left;Left;0,7475017
50;08;0,6295912;2;8;Even;Left;Left;0,6183897
51;08;0,7144479;2;3;Odd;Right;Right;0,7030282
52;08;0,7603301;2;9;Odd;Right;Right;0,7474348
53;08;0,8368873;2;2;Even;Left;Left;0,8268996
55;08;0,8445253;2;7;Odd;Right;Right;0,8320487
56;08;0,6600401;2;3;Odd;Right;Right;0,648903
57;08;0,7359959;2;8;Even;Left;Left;0,7245065
58;08;0,7141143;2;9;Odd;Right;Right;0,7035007
59;08;0,7367128;2;6;Even;Left;Left;0,7263296
60;08;0,7608589;2;2;Even;Left;Left;0,7498122
61;08;0,6435366;2;1;Odd;Right;Right;0,6323716
62;08;0,7931777;2;4;Even;Left;Left;0,7825667
64;08;0,6879269;2;1;Odd;Right;Right;0,6764196
65;08;0,7467369;2;7;Odd;Right;Right;0,7355344
66;08;0,6814167;2;3;Odd;Right;Right;0,670414
67;08;0,6589373;2;2;Even;Left;Left;0,6478173
68;08;0,7599679;2;4;Even;Left;Left;0,7491519
69;08;0,6707715;2;9;Odd;Right;Right;0,6595813
70;08;0,7152891;2;6;Even;Left;Left;0,7052851
71;08;0,7485752;2;8;Even;Left;Left;0,7368377
73;08;0,6924806;2;9;Odd;Right;Right;0,6790449
74;08;0,7024274;2;8;Even;Left;Left;0,691868
75;08;0,6711044;2;1;Odd;Right;Right;0,6606729
76;08;0,6935457;2;4;Even;Left;Left;0,6825918
77;08;0,7028527;2;3;Odd;Right;Right;0,6925145
78;08;0,6580834;2;2;Even;Left;Left;0,6471405
79;08;0,6802242;2;7;Odd;Right;Right;0,6682077
80;08;0,6649395;2;6;Even;Left;Left;0,6536322
82;08;0,8270503;2;2;Even;Left;Left;0,8159676
83;08;0,682227;2;1;Odd;Right;Right;0,6709481
84;08;0,7373654;2;4;Even;Left;Left;0,725669
85;08;0,700196;2;9;Odd;Right;Right;0,6890691
86;08;0,7032542;2;3;Odd;Right;Right;0,6907114
87;08;0,6686903;2;6;Even;Left;Left;0,6574755
88;08;0,6799179;2;8;Even;Left;Left;0,6702563
89;08;0,7025123;2;7;Odd;Right;Right;0,6916113
91;08;0,7541792;2;1;Odd;Right;Left;0,7428203
92;08;0,8154432;2;3;Odd;Right;Right;0,8041622
93;08;0,9058378;2;6;Even;Left;Left;0,8953974
94;08;0,641299;2;2;Even;Left;Left;0,6302457
95;08;0,636475;2;4;Even;Left;Left;0,6251295
96;08;0,6819755;2;9;Odd;Right;Right;0,6708547
97;08;0,6871215;2;8;Even;Left;Left;0,6768771
98;08;0,7781277;2;7;Odd;Right;Right;0,7667548
100;08;0,7359753;2;2;Even;Left;Left;0,7247932
101;08;0,7609099;2;6;Even;Left;Left;0,7499133
102;08;0,7926349;2;7;Odd;Right;Right;0,7809638
103;08;0,7148207;2;9;Odd;Right;Right;0,7033908
104;08;0,5920472;2;8;Even;Left;Left;0,5804034
105;08;0,6221752;2;4;Even;Left;Left;0,6110989
106;08;0,7600736;2;1;Odd;Right;Right;0,7491488
107;08;0,7146226;2;3;Odd;Right;Right;0,7036473
109;08;0,6816797;2;7;Odd;Right;Right;0,6703277
110;08;0,7161594;2;8;Even;Left;Left;0,7042257
111;08;0,8378828;2;6;Even;Left;Left;0,7822166
112;08;0,6923791;2;3;Odd;Right;Right;0,6144556
113;08;0,6928856;2;1;Odd;Right;Right;0,6813725
114;08;0,5918566;2;2;Even;Left;Left;0,5805695
115;08;0,7200865;2;9;Odd;Right;Right;0,5863111
116;08;0,6836955;2;4;Even;Left;Left;0,6496615
118;08;0,69229;2;1;Odd;Right;Right;0,6584822
119;08;0,7044473;2;6;Even;Left;Left;0,6933202
120;08;0,6797935;2;7;Odd;Right;Right;0,6687165
121;08;0,6358602;2;4;Even;Left;Left;0,6253123
122;08;0,8368766;2;2;Even;Left;Left;0,8263977
123;08;0,8039228;2;3;Odd;Right;Right;0,545974
124;08;0,5703091;2;8;Even;Left;Left;0,5595747
125;08;0,7354402;2;9;Odd;Right;Right;0,7244408
127;08;0,8228956;2;6;Even;Left;Left;0,8116546
128;08;0,6025401;2;2;Even;Left;Left;0,5912408
129;08;0,6810556;2;9;Odd;Right;Right;0,6599479
130;08;0,9275175;2;1;Odd;Right;Right;0,9051173
131;08;1,022379;2;7;Odd;Right;Right;0,9882816
132;08;0,7537871;2;8;Even;Left;Left;0,519032
133;08;0,6590178;2;4;Even;Left;Left;0,6360114
134;08;0,6369701;2;3;Odd;Right;Right;0,6255627

