Trial No;Subject ID;Reaction Time;Block No;Stimulus Number;Parity;Correct Response;Actual Response;Response Time
1;01;3,732953;1;7;Odd;Left;Left;0,312511
2;01;3,665755;1;8;Even;Right;Right;2,52401
3;01;1,575856;1;3;Odd;Left;Right;0,6248378
4;01;2,189231;1;2;Even;Right;Right;2,178172
5;01;1,361511;1;6;Even;Right;Right;0,6267512
6;01;0,9277236;1;9;Odd;Left;Left;0,2016931
7;01;1,66699;1;4;Even;Right;Right;1,622567
8;01;0,9269964;1;1;Odd;Left;Left;0,2182246
10;01;0,9330148;1;1;Odd;Left;Left;0,229836
11;01;1,03765;1;7;Odd;Left;Left;0,2224408
12;01;0,9734857;1;3;Odd;Left;Left;0,2078654
13;01;8,277098;1;8;Even;Right;Right;7,651773
14;01;1,339036;1;2;Even;Right;Right;0,5571087
15;01;1,253705;1;4;Even;Right;Right;0,5817956
16;01;0,9082298;1;9;Odd;Left;Left;0,2842572
17;01;2,248232;1;6;Even;Right;Right;1,671714
19;01;0,8812008;1;7;Odd;Left;Left;0,3034846
20;01;1,163172;1;2;Even;Right;Right;0,5630857
21;01;0,8564233;1;1;Odd;Left;Left;0,2353816
22;01;1,148528;1;6;Even;Right;Right;0,6422762
23;01;0,949598;1;9;Odd;Left;Left;0,257405
24;01;1,181729;1;8;Even;Right;Right;0,6574695
25;01;2,153508;1;4;Even;Right;Right;1,435042
26;01;0,7352115;1;3;Odd;Left;Left;0,258309
28;01;1,205627;1;9;Odd;Left;Left;0,223757
29;01;1,205804;1;1;Odd;Left;Left;0,2444341
30;01;2,094355;1;6;Even;Right;Right;1,391357
31;01;0,9170507;1;7;Odd;Left;Left;0,9055828
32;01;1,799735;1;3;Odd;Left;Left;1,788069
33;01;7,918064;1;2;Even;Right;Right;7,538121
34;01;1,307629;1;8;Even;Right;Right;0,5162579
35;01;2,322271;1;4;Even;Right;Right;1,742249
37;01;0,792423;1;3;Odd;Left;Left;0,1840285
38;01;4,445293;1;6;Even;Right;Right;3,507475
39;01;1,19715;1;4;Even;Right;Right;0,4833345
40;01;0,8799086;1;7;Odd;Left;Left;0,2182316
41;01;2,828865;1;2;Even;Right;Right;2,282955
42;01;1,2763;1;8;Even;Right;Right;1,265034
43;01;0,8038579;1;9;Odd;Left;Left;0,2680334
44;01;1,014791;1;1;Odd;Left;Left;0,2225553
46;01;0,8380104;1;1;Odd;Left;Left;0,2086256
47;01;1,729136;1;8;Even;Right;Right;1,260468
48;01;0,8929873;1;7;Odd;Left;Left;0,8817269
49;01;9,809916;1;2;Even;Right;Right;9,33974
50;01;1,384395;1;4;Even;Right;Right;0,5263576
51;01;1,062919;1;3;Odd;Left;Left;0,3247938
52;01;1,182139;1;9;Odd;Left;Left;0,3019757
53;01;1,899182;1;6;Even;Right;Right;1,321239
55;01;0,9394039;1;1;Odd;Left;Left;0,2349059
56;01;0,9176478;1;3;Odd;Left;Left;0,2827284
57;01;1,831467;1;6;Even;Right;Right;1,395806
58;01;0,7946986;1;9;Odd;Left;Left;0,3419266
59;01;0,9401877;1;8;Even;Right;Right;0,3690315
60;01;1,160028;1;2;Even;Right;Right;0,4547162
61;01;1,024614;1;4;Even;Right;Right;0,4420469
62;01;0,8040628;1;7;Odd;Left;Left;0,3350839
64;01;1,349738;1;2;Even;Right;Right;0,4123724
65;01;0,9486743;1;4;Even;Right;Right;0,3800522
66;01;1,94198;1;8;Even;Right;Right;1,86421
67;01;0,9807946;1;6;Even;Right;Right;0,372711
68;01;1,016562;1;1;Odd;Left;Left;0,3438624
69;01;2,110135;1;7;Odd;Left;Left;2,099217
70;01;0,9381325;1;3;Odd;Left;Left;0,4010657
71;01;0,937482;1;9;Odd;Left;Left;0,2336912
73;01;0,9064401;1;2;Even;Right;Right;0,482389
74;01;0,8826763;1;9;Odd;Left;Left;0,8715671
75;01;0,9941384;1;1;Odd;Left;Left;0,2347166
76;01;0,9681845;1;7;Odd;Left;Left;0,62693
77;01;0,9600104;1;6;Even;Right;Right;0,3347843
78;01;1,116954;1;8;Even;Right;Left;0,256916
79;01;1,127779;1;3;Odd;Left;Left;0,190044
80;01;0,8813707;1;4;Even;Right;Right;0,3689905
82;01;0,9657696;1;4;Even;Right;Right;0,3400747
83;01;0,8951094;1;3;Odd;Left;Left;0,2798101
84;01;4,097923;1;7;Odd;Left;Left;3,597769
85;01;0,9965076;1;9;Odd;Left;Left;0,2454836
86;01;0,8265091;1;2;Even;Right;Right;0,3434646
87;01;0,8831552;1;6;Even;Right;Right;0,3179687
88;01;0,8747712;1;1;Odd;Left;Left;0,2801453
89;01;1,162609;1;8;Even;Right;Right;1,151754
91;01;0,6668774;1;3;Odd;Left;Left;0,6555552
92;01;0,7582707;1;6;Even;Right;Right;0,3008866
93;01;0,7236766;1;9;Odd;Left;Left;0,2226348
94;01;1,075501;1;1;Odd;Left;Left;0,2145245
95;01;0,7272374;1;2;Even;Right;Right;0,2786576
96;01;0,7143582;1;7;Odd;Left;Left;0,2564102
97;01;0,7455618;1;8;Even;Right;Right;0,7334185
98;01;1,075962;1;4;Even;Right;Left;0,225158
100;01;0,8228329;1;9;Odd;Left;Left;0,2012386
101;01;1,196132;1;2;Even;Right;Right;0,3367003
102;01;0,8591799;1;8;Even;Right;Right;0,3005235
103;01;0,8925085;1;4;Even;Right;Right;0,3130242
104;01;0,8346301;1;1;Odd;Left;Left;0,2008128
105;01;10,79251;1;6;Even;Right;Right;10,23374
106;01;1,137966;1;3;Odd;Left;Left;0,4454874
107;01;1,59847;1;7;Odd;Left;Left;0,2135458
109;01;6,559336;1;2;Even;Right;Right;5,865047
110;01;1,100155;1;8;Even;Right;Right;0,4428765
111;01;0,7788713;1;7;Odd;Left;Left;0,2508822
112;01;1,073721;1;1;Odd;Left;Left;0,5368606
113;01;1,70925;1;4;Even;Right;Right;1,151266
114;01;0,793997;1;3;Odd;Left;Left;0,2780156
115;01;2,434501;1;9;Odd;Left;Left;1,840141
116;01;1,051372;1;6;Even;Right;Right;0,4308519
118;01;14,17269;1;6;Even;Right;Right;13,23403
119;01;1,887196;1;8;Even;Right;Right;0,6766906
120;01;1,049863;1;1;Odd;Left;Left;1,039016
121;01;1,114928;1;4;Even;Right;Right;0,409744
122;01;1,094685;1;7;Odd;Left;Left;0,2735026
123;01;1,015225;1;3;Odd;Left;Left;0,2333825
124;01;7,259183;1;2;Even;Right;Right;6,599304
125;01;0,9954489;1;9;Odd;Left;Left;0,6813605
127;01;0,9398289;1;9;Odd;Left;Left;0,3237669
128;01;2,255756;1;4;Even;Right;Right;2,160257
129;01;0,7942858;1;3;Odd;Left;Left;0,2378191
130;01;1,083287;1;7;Odd;Left;Left;0,3747095
131;01;6,119957;1;8;Even;Right;Right;5,398417
132;01;10,87983;1;2;Even;Right;Right;10,19866
133;01;1,396789;1;6;Even;Right;Right;0,6374111
134;01;1,039537;1;1;Odd;Left;Left;0,5018191
136;01;0,8944746;1;1;Odd;Left;Left;0,234542
137;01;1,596873;1;3;Odd;Left;Left;0,896578
138;01;1,240751;1;6;Even;Right;Right;0,5815321
139;01;3,59574;1;8;Even;Right;Right;3,584504
140;01;2,182008;1;2;Even;Right;Right;1,991924
141;01;0,7721087;1;7;Odd;Left;Left;0,7164783
142;01;4,093127;1;4;Even;Right;Right;3,412641
143;01;0,9732106;1;9;Odd;Left;Left;0,3368666
145;01;3,639899;1;9;Odd;Left;Left;2,98001
146;01;1,044916;1;3;Odd;Left;Left;0,2792586
147;01;1,324258;1;8;Even;Right;Right;0,6238037
148;01;1,307972;1;2;Even;Right;Right;0,5796577
149;01;1,026857;1;7;Odd;Left;Left;0,2798201
150;01;0,9599939;1;1;Odd;Left;Left;0,3015159
151;01;1,147505;1;4;Even;Right;Right;0,6347361
152;01;3,730451;1;6;Even;Right;Right;3,71824
154;01;0,9611241;1;9;Odd;Left;Left;0,7815537
155;01;7,955952;1;2;Even;Right;Right;7,944327
156;01;0,8946786;1;3;Odd;Left;Left;0,2569488
157;01;1,444528;1;6;Even;Right;Right;0,5831764
158;01;0,8918868;1;1;Odd;Left;Left;0,4090948
159;01;0,9600588;1;7;Odd;Left;Left;0,3593135
160;01;2,403383;1;8;Even;Right;Right;2,301295
161;01;1,731175;1;4;Even;Right;Right;1,719837
163;01;16,03873;1;8;Even;Right;Right;15,82621
164;01;0,9046257;1;9;Odd;Left;Left;0,8935725
165;01;2,127572;1;6;Even;Right;Right;1,522453
166;01;28,69447;1;2;Even;Right;Right;28,68279
167;01;0,8609384;1;1;Odd;Left;Left;0,2792581
168;01;1,551368;1;4;Even;Right;Right;0,6224348
169;01;1,073572;1;7;Odd;Left;Left;0,4701076
170;01;5,838078;1;3;Odd;Left;Left;5,244876
172;01;1,083203;1;1;Odd;Left;Left;0,3221505
173;01;1,005804;1;3;Odd;Left;Left;0,9942163
174;01;13,10081;1;4;Even;Right;Right;12,50033
175;01;1,630907;1;6;Even;Right;Right;0,7580401
176;01;6,120044;1;8;Even;Right;Right;5,1823
177;01;1,294427;1;2;Even;Right;Right;0,73504
178;01;0,8124355;1;9;Odd;Left;Left;0,2244045
179;01;4,17801;1;7;Odd;Left;Left;2,34633
Trial No;Subject ID;Reaction Time;Block No;Stimulus Number;Parity;Correct Response;Actual Response;Response Time
1;01;1,260491;2;6;Even;Left;Left;1,249678
2;01;1,482445;2;1;Odd;Right;Right;0,8818831
3;01;1,216724;2;7;Odd;Right;Right;0,5031371
4;01;0,7704758;2;2;Even;Left;Left;0,2014524
5;01;1,84606;2;9;Odd;Right;Right;1,702261
6;01;0,7396719;2;4;Even;Left;Left;0,1785266
7;01;1,951311;2;3;Odd;Right;Right;1,401908
8;01;0,7598875;2;8;Even;Left;Left;0,255563
10;01;9,319151;2;1;Odd;Right;Right;8,759028
11;01;0,9011874;2;4;Even;Left;Left;0,2236385
12;01;1,848062;2;6;Even;Left;Left;1,097234
13;01;7,183234;2;2;Even;Left;Left;6,503423
14;01;2,254269;2;9;Odd;Right;Right;1,717298
15;01;1,371464;2;7;Odd;Right;Right;0,5332663
16;01;0,791379;2;8;Even;Left;Left;0,2219938
17;01;1,462697;2;3;Odd;Right;Right;0,422904
19;01;0,7249014;2;4;Even;Left;Left;0,2218715
20;01;1,48342;2;3;Odd;Right;Right;0,5263547
21;01;0,7821467;2;2;Even;Left;Left;0,20079
22;01;2,905823;2;9;Odd;Right;Right;2,235588
23;01;0,7268274;2;8;Even;Left;Left;0,2398399
24;01;0,9161977;2;1;Odd;Right;Right;0,4805306
25;01;32,28045;2;6;Even;Left;Left;31,81691
26;01;2,210814;2;7;Odd;Right;Right;1,437602
28;01;4,357886;2;4;Even;Left;Left;3,799296
29;01;1,150083;2;9;Odd;Right;Right;0,6119996
30;01;1,737373;2;6;Even;Left;Left;1,252455
31;01;5,174513;2;8;Even;Left;Left;4,416159
32;01;1,597528;2;3;Odd;Right;Right;1,163551
33;01;1,295484;2;7;Odd;Right;Right;0,5984174
34;01;4,233118;2;1;Odd;Right;Right;3,457315
35;01;0,8042037;2;2;Even;Left;Left;0,2604048
37;01;6,043935;2;1;Odd;Right;Right;5,808307
38;01;0,7132486;2;8;Even;Left;Left;0,2001197
39;01;0,9499807;2;4;Even;Left;Left;0,278863
40;01;1,353646;2;9;Odd;Right;Right;0,7712263
41;01;0,7728935;2;6;Even;Left;Left;0,2146705
42;01;7,135952;2;2;Even;Left;Left;6,420149
43;01;5,217071;2;3;Odd;Right;Right;4,735969
44;01;1,037246;2;7;Odd;Right;Left;0,2211244
46;01;14,73254;2;3;Odd;Right;Left;12,9596
47;01;2,17979;2;8;Even;Left;Right;1,463036
48;01;1,742103;2;7;Odd;Right;Right;0,5220212
49;01;1,348202;2;9;Odd;Right;Right;0,4780119
50;01;1,238614;2;2;Even;Left;Left;0,2215701
51;01;1,130474;2;1;Odd;Right;Right;0,5822633
52;01;0,7698888;2;6;Even;Left;Left;0,2568408
53;01;6,724788;2;4;Even;Left;Left;6,158201
55;01;4,497826;2;9;Odd;Right;Right;3,882941
56;01;1,283113;2;8;Even;Left;Left;0,2565587
57;01;1,41784;2;7;Odd;Right;Right;0,6568051
58;01;1,55412;2;1;Odd;Right;Right;0,9569705
59;01;0,9364293;2;4;Even;Left;Left;0,2342447
60;01;1,263368;2;3;Odd;Right;Right;0,7696896
61;01;3,036742;2;2;Even;Left;Left;2,558473
62;01;2,783086;2;6;Even;Left;Left;1,876235
64;01;2,515469;2;9;Odd;Right;Right;1,935639
65;01;5,16943;2;7;Odd;Right;Right;4,484667
66;01;16,39413;2;6;Even;Left;Left;15,79318
67;01;1,378593;2;1;Odd;Right;Right;0,8061572
68;01;16,06293;2;8;Even;Left;Left;15,56379
69;01;6,090537;2;3;Odd;Right;Right;5,307561
70;01;17,19095;2;4;Even;Left;Left;16,45352
71;01;1,071828;2;2;Even;Left;Left;0,2801073
73;01;20,16089;2;2;Even;Left;Left;20,06059
74;01;8,957767;2;3;Odd;Right;Right;8,946418
75;01;32,18014;2;8;Even;Left;Left;31,56251
76;01;2,265792;2;6;Even;Left;Right;1,608015
77;01;2,608289;2;7;Odd;Right;Right;1,64669
78;01;1,163088;2;4;Even;Left;Left;0,3439741
79;01;1,666474;2;1;Odd;Right;Right;0,7937912
80;01;4,6041;2;9;Odd;Right;Right;3,622897
82;01;0,8246272;2;2;Even;Left;Left;0,2991717
83;01;1,521774;2;9;Odd;Right;Right;0,6051311
84;01;1,334058;2;7;Odd;Right;Right;0,5662629
85;01;0,9295874;2;4;Even;Left;Left;0,2732435
86;01;1,733653;2;6;Even;Left;Left;1,017359
87;01;8,865273;2;8;Even;Left;Left;7,90568
88;01;3,315119;2;3;Odd;Right;Right;3,136471
89;01;1,421295;2;1;Odd;Right;Right;0,6004767
91;01;13,97474;2;6;Even;Left;Left;13,28289
92;01;1,161459;2;8;Even;Left;Left;0,3218716
93;01;1,386785;2;3;Odd;Right;Right;1,375563
94;01;2,177112;2;1;Odd;Right;Right;1,629202
95;01;0,9614716;2;4;Even;Left;Left;0,2342011
96;01;1,281408;2;7;Odd;Right;Right;0,601456
97;01;1,751299;2;2;Even;Left;Right;0,7355534
98;01;5,062674;2;9;Odd;Right;Right;4,32166
100;01;1,184787;2;9;Odd;Right;Right;0,5253983
101;01;0,8380604;2;4;Even;Left;Left;0,2351664
102;01;0,9937426;2;2;Even;Left;Left;0,212571
103;01;1,074095;2;1;Odd;Right;Right;0,4946939
104;01;1,259831;2;8;Even;Left;Right;0,5441145
105;01;1,438686;2;6;Even;Left;Left;0,4257386
106;01;1,176352;2;3;Odd;Right;Right;0,5622552
107;01;1,282866;2;7;Odd;Right;Right;0,4793946
109;01;13,67923;2;2;Even;Left;Left;12,87634
110;01;1,706826;2;3;Odd;Right;Right;1,227549
111;01;1,553918;2;9;Odd;Right;Right;0,5465689
112;01;0,9368035;2;8;Even;Left;Left;0,1996765
113;01;3,362983;2;7;Odd;Right;Right;2,783415
114;01;1,717314;2;4;Even;Left;Left;0,1918008
115;01;4,144309;2;6;Even;Left;Left;3,399054
116;01;1,118031;2;1;Odd;Right;Right;0,2561134
118;01;1,127118;2;3;Odd;Right;Right;0,2761509
119;01;0,9627044;2;1;Odd;Right;Right;0,3598501
120;01;1,909236;2;2;Even;Left;Left;1,096599
121;01;1,09422;2;6;Even;Left;Left;0,2348726
122;01;4,411308;2;8;Even;Left;Left;3,651424
123;01;1,563313;2;7;Odd;Right;Right;0,9836328
124;01;2,233646;2;9;Odd;Right;Left;1,442496
125;01;8,777678;2;4;Even;Left;Left;8,089497
127;01;1,282319;2;9;Odd;Right;Right;0,6028307
128;01;1,220735;2;3;Odd;Right;Right;0,6055574
129;01;1,082838;2;1;Odd;Right;Right;0,4026779
130;01;0,932192;2;2;Even;Left;Left;0,3014886
131;01;3,924435;2;4;Even;Left;Left;3,264214
132;01;1,219186;2;8;Even;Left;Left;0,243399
133;01;7,917261;2;6;Even;Left;Left;7,156286
134;01;1,450781;2;7;Odd;Right;Right;0,6606836
136;01;1,271572;2;3;Odd;Right;Right;0,4615055
137;01;1,541615;2;1;Odd;Right;Right;0,5993829
138;01;3,73418;2;8;Even;Left;Left;3,097206
139;01;2,458053;2;9;Odd;Right;Right;1,652344
140;01;1,238259;2;7;Odd;Right;Right;0,5077591
141;01;0,8791788;2;6;Even;Left;Left;0,2315441
142;01;12,34247;2;4;Even;Left;Left;11,51401
143;01;1,275735;2;2;Even;Left;Left;1,264536
145;01;1,194466;2;7;Odd;Right;Right;0,6538173
146;01;2,254223;2;1;Odd;Right;Right;1,581358
147;01;1,430745;2;9;Odd;Right;Right;0,7003114
148;01;1,055063;2;6;Even;Left;Left;0,2995485
149;01;1,072169;2;8;Even;Left;Left;0,3387097
150;01;1,118515;2;3;Odd;Right;Right;0,6003351
151;01;0,9173311;2;2;Even;Left;Left;0,2794859
152;01;1,270671;2;4;Even;Left;Left;1,259436
154;01;20,34012;2;3;Odd;Right;Right;20,32896
155;01;2,577534;2;9;Odd;Right;Right;1,751428
156;01;0,9957456;2;8;Even;Left;Left;0,3129521
157;01;4,782305;2;6;Even;Left;Left;3,94395
158;01;2,040106;2;2;Even;Left;Left;1,237805
159;01;4,496939;2;7;Odd;Right;Right;3,792597
160;01;1,466837;2;1;Odd;Right;Right;0,7380321
161;01;0,8601358;2;4;Even;Left;Left;0,2912153
163;01;5,369387;2;2;Even;Left;Left;5,35828
164;01;7,457752;2;7;Odd;Right;Right;6,942036
165;01;0,7600815;2;8;Even;Left;Left;0,2673368
166;01;0,9954569;2;6;Even;Left;Left;0,9845853
167;01;1,282412;2;9;Odd;Right;Right;0,7225252
168;01;6,163918;2;3;Odd;Right;Right;5,528306
169;01;0,8705205;2;4;Even;Left;Left;0,2975584
170;01;4,692006;2;1;Odd;Right;Right;4,021636
172;01;6,533182;2;9;Odd;Right;Right;5,86188
173;01;0,9601771;2;3;Odd;Right;Right;0,3459368
174;01;0,8604426;2;1;Odd;Right;Right;0,3130285
175;01;1,061956;2;4;Even;Left;Left;0,2566807
176;01;2,516505;2;8;Even;Left;Left;1,870122
177;01;7,394866;2;6;Even;Left;Left;7,383516
178;01;0,8714256;2;2;Even;Left;Left;0,2699052
179;01;1,136885;2;7;Odd;Right;Right;0,5577416

