Trial No;Subject ID;Reaction Time;Block No;Stimulus Number;Parity;Correct Response;Actual Response;Response Time
1;05;1,239831;1;4;Even;Right;Right;0,4733894
2;05;0,9872146;1;9;Odd;Left;Left;0,2695399
3;05;0,8836698;1;2;Even;Right;Right;0,8723345
4;05;1,454005;1;8;Even;Right;Right;0,8724302
5;05;0,8369086;1;7;Odd;Left;Left;0,82577
6;05;0,8599082;1;3;Odd;Left;Left;0,8488092
7;05;1,016532;1;1;Odd;Left;Left;1,00548
8;05;0,8335454;1;6;Even;Right;Right;0,8223558
10;05;0,8593551;1;3;Odd;Left;Left;0,2778684
11;05;0,759491;1;1;Odd;Left;Left;0,7482387
12;05;0,9828636;1;9;Odd;Left;Left;0,8388002
13;05;1,598453;1;4;Even;Right;Right;1,140681
14;05;0,7708489;1;7;Odd;Left;Left;0,2902797
15;05;0,9036367;1;2;Even;Right;Right;0,8903861
16;05;1,163194;1;8;Even;Right;Right;0,8378796
17;05;1,417723;1;6;Even;Right;Right;1,138748
19;05;1,663951;1;2;Even;Right;Right;1,00644
20;05;0,8541996;1;9;Odd;Left;Left;0,8428541
21;05;1,206289;1;3;Odd;Left;Left;1,19501
22;05;0,8384613;1;7;Odd;Left;Left;0,8270167
23;05;1,395488;1;6;Even;Right;Right;1,38425
24;05;1,174337;1;8;Even;Right;Left;0,6351882
25;05;1,170996;1;4;Even;Right;Right;1,15967
26;05;0,9031845;1;1;Odd;Left;Left;0,3688893
28;05;1,239775;1;9;Odd;Left;Left;0,517645
29;05;0,9907424;1;4;Even;Right;Right;0,4111739
30;05;0,8149009;1;1;Odd;Left;Left;0,3382277
31;05;1,09505;1;8;Even;Right;Right;1,083353
32;05;0,8488165;1;7;Odd;Left;Left;0,837892
33;05;0,8260267;1;6;Even;Right;Right;0,270267
34;05;1,081355;1;2;Even;Right;Right;0,6571551
35;05;0,8044226;1;3;Odd;Left;Left;0,6258467
37;05;1,016019;1;2;Even;Right;Right;0,4370298
38;05;0,9605528;1;6;Even;Right;Right;0,3238142
39;05;1,138747;1;3;Odd;Left;Left;0,4466081
40;05;0,8599802;1;8;Even;Right;Right;0,2582876
41;05;0,9271251;1;9;Odd;Left;Left;0,6031507
42;05;3,473482;1;1;Odd;Left;Left;2,880632
43;05;0,7927341;1;4;Even;Right;Right;0,256516
44;05;1,553925;1;7;Odd;Left;Left;0,7630089
46;05;0,9004588;1;3;Odd;Left;Left;0,8888259
47;05;0,9144627;1;7;Odd;Left;Left;0,3354933
48;05;0,6933178;1;2;Even;Right;Right;0,2239033
49;05;0,89325;1;9;Odd;Left;Right;0,8815193
50;05;0,9732022;1;8;Even;Right;Right;0,4136518
51;05;0,9139912;1;6;Even;Right;Right;0,3162304
52;05;1,195263;1;4;Even;Right;Right;0,536893
53;05;0,7779329;1;1;Odd;Left;Left;0,2906506
55;05;1,319266;1;3;Odd;Left;Left;0,470853
56;05;0,9823987;1;7;Odd;Left;Left;0,9709667
57;05;0,8369991;1;1;Odd;Left;Left;0,304996
58;05;0,8329824;1;4;Even;Right;Right;0,2542385
59;05;1,283432;1;9;Odd;Left;Left;0,7022948
60;05;1,46326;1;2;Even;Right;Right;0,6040753
61;05;1,015017;1;8;Even;Right;Right;0,2592877
62;05;0,8822628;1;6;Even;Right;Right;0,2569722
64;05;0,7816278;1;1;Odd;Left;Left;0,3143825
65;05;0,8984932;1;7;Odd;Left;Left;0,2803276
66;05;0,8339468;1;6;Even;Right;Right;0,2142934
67;05;1,105813;1;4;Even;Right;Right;0,5032705
68;05;1,082251;1;2;Even;Right;Right;0,2684113
69;05;0,8109396;1;9;Odd;Left;Left;0,282532
70;05;1,093435;1;3;Odd;Left;Left;0,3569876
71;05;0,7894262;1;8;Even;Right;Right;0,1987217
73;05;0,7809424;1;8;Even;Right;Right;0,7693208
74;05;1,194638;1;2;Even;Right;Right;0,4474173
75;05;0,8712143;1;9;Odd;Left;Left;0,2351131
76;05;2,847642;1;1;Odd;Left;Left;2,131016
77;05;0,816804;1;3;Odd;Left;Left;0,3417414
78;05;0,8436238;1;7;Odd;Left;Left;0,2401468
79;05;0,8824765;1;6;Even;Right;Right;0,2137147
80;05;0,8186753;1;4;Even;Right;Right;0,2115909
82;05;0,836065;1;9;Odd;Left;Left;0,3019041
83;05;1,084283;1;4;Even;Right;Right;0,245777
84;05;0,8327459;1;8;Even;Right;Right;0,2572305
85;05;0,7802826;1;6;Even;Right;Right;0,2824374
86;05;0,7562196;1;7;Odd;Left;Left;0,2917522
87;05;2,100073;1;1;Odd;Left;Left;1,598641
88;05;0,8611242;1;2;Even;Right;Right;0,2684725
89;05;1,337073;1;3;Odd;Left;Left;1,202619
91;05;1,331954;1;2;Even;Right;Right;1,320496
92;05;1,049494;1;8;Even;Right;Right;1,038308
93;05;4,017943;1;4;Even;Right;Right;3,883744
94;05;0,73335;1;6;Even;Right;Right;0,1993063
95;05;0,7553886;1;1;Odd;Left;Left;0,2453215
96;05;1,575921;1;9;Odd;Left;Left;0,5358714
97;05;0,8585445;1;7;Odd;Left;Left;0,3351491
98;05;0,7944635;1;3;Odd;Left;Left;0,7829481
100;05;0,8246598;1;4;Even;Right;Right;0,2656181
101;05;1,204531;1;8;Even;Right;Left;1,083317
102;05;1,675253;1;3;Odd;Left;Left;0,2356511
103;05;0,9375844;1;2;Even;Right;Right;0,9271604
104;05;1,094757;1;9;Odd;Left;Left;0,9829684
105;05;4,583945;1;6;Even;Right;Right;4,238016
106;05;0,894435;1;1;Odd;Left;Left;0,8831905
107;05;0,9155436;1;7;Odd;Left;Left;0,270345
109;05;0,7823396;1;3;Odd;Left;Left;0,3019466
110;05;0,8158557;1;1;Odd;Left;Left;0,3247699
111;05;1,30974;1;8;Even;Right;Right;0,1926318
112;05;1,039518;1;7;Odd;Left;Left;0,2395647
113;05;5,036023;1;9;Odd;Left;Left;4,97061
114;05;1,087479;1;2;Even;Right;Right;0,2123124
115;05;0,7096841;1;6;Even;Right;Right;0,1795959
116;05;0,7441347;1;4;Even;Right;Right;0,1818076
118;05;1,281748;1;9;Odd;Left;Left;0,221202
119;05;0,9123181;1;2;Even;Right;Right;0,2204235
120;05;1,384594;1;1;Odd;Left;Left;0,3943257
121;05;0,9718148;1;6;Even;Right;Right;0,2007855
122;05;1,062935;1;4;Even;Right;Right;0,2457176
123;05;0,9941062;1;3;Odd;Left;Left;0,293988
124;05;0,8371195;1;8;Even;Right;Right;0,2239836
125;05;0,8727491;1;7;Odd;Left;Left;0,2489354
127;05;1,16116;1;3;Odd;Left;Left;0,4820839
128;05;1,239478;1;7;Odd;Left;Left;0,2563083
129;05;1,015793;1;9;Odd;Left;Left;0,2566164
130;05;1,016357;1;6;Even;Right;Right;1,005219
131;05;1,139035;1;1;Odd;Left;Left;0,2564616
132;05;0,9158368;1;8;Even;Right;Right;0,2571546
133;05;1,241012;1;2;Even;Right;Right;0,1785884
134;05;0,9032454;1;4;Even;Right;Right;0,2465459
Trial No;Subject ID;Reaction Time;Block No;Stimulus Number;Parity;Correct Response;Actual Response;Response Time
1;05;1,094141;2;4;Even;Left;Right;0,7205744
2;05;1,05241;2;1;Odd;Right;Right;0,2870356
3;05;0,9377512;2;2;Even;Left;Left;0,345462
4;05;2,58075;2;6;Even;Left;Left;2,011393
5;05;1,106068;2;7;Odd;Right;Right;1,094745
6;05;0,8120946;2;3;Odd;Right;Right;0,3004181
7;05;0,8482943;2;9;Odd;Right;Right;0,2567033
8;05;1,473673;2;8;Even;Left;Left;1,462587
10;05;0,9151915;2;9;Odd;Right;Right;0,2898754
11;05;1,061003;2;8;Even;Left;Left;0,379551
12;05;0,9941387;2;2;Even;Left;Left;0,3359282
13;05;0,8537596;2;1;Odd;Right;Right;0,8427439
14;05;1,173666;2;7;Odd;Right;Left;0,3003549
15;05;1,058625;2;6;Even;Left;Left;0,4173476
16;05;0,78179;2;3;Odd;Right;Right;0,7705585
17;05;1,089175;2;4;Even;Left;Left;1,075586
19;05;0,8296138;2;9;Odd;Right;Right;0,3818287
20;05;0,7761725;2;4;Even;Left;Left;0,3435515
21;05;1,033901;2;1;Odd;Right;Right;0,3359773
22;05;2,282473;2;8;Even;Left;Left;1,718779
23;05;0,804996;2;7;Odd;Right;Right;0,7025801
24;05;0,836473;2;2;Even;Left;Left;0,7584774
25;05;0,8704928;2;3;Odd;Right;Right;0,8602494
26;05;0,9939072;2;6;Even;Left;Left;0,3589292
28;05;0,9989746;2;2;Even;Left;Left;0,3587624
29;05;0,9030142;2;8;Even;Left;Left;0,8921143
30;05;0,9541581;2;3;Odd;Right;Right;0,9454039
31;05;1,183395;2;4;Even;Left;Left;1,173
32;05;0,9578912;2;6;Even;Left;Left;0,4371623
33;05;0,9133629;2;9;Odd;Right;Right;0,3324965
34;05;0,915865;2;1;Odd;Right;Left;0,837954
35;05;0,8826783;2;7;Odd;Right;Right;0,8707284
37;05;0,9177971;2;4;Even;Left;Left;0,3353184
38;05;0,9064749;2;8;Even;Left;Left;0,347411
39;05;0,8586867;2;3;Odd;Right;Right;0,3337834
40;05;0,782529;2;9;Odd;Right;Right;0,3228052
41;05;0,8411888;2;2;Even;Left;Left;0,3935663
42;05;1,306881;2;6;Even;Left;Left;0,5125365
43;05;0,9817821;2;1;Odd;Right;Right;0,9707394
44;05;1,117914;2;7;Odd;Right;Left;0,4618838
46;05;0,8601665;2;2;Even;Left;Left;0,8480139
47;05;0,7475973;2;9;Odd;Right;Right;0,3675581
48;05;1,641042;2;7;Odd;Right;Right;1,629545
49;05;0,8826035;2;6;Even;Left;Left;0,3581678
50;05;1,127636;2;8;Even;Left;Left;0,5462613
51;05;0,8392349;2;3;Odd;Right;Right;0,3022813
52;05;0,8377457;2;1;Odd;Right;Right;0,301589
53;05;1,460022;2;4;Even;Left;Left;1,448793
55;05;0,8294793;2;2;Even;Left;Left;0,8181852
56;05;0,8606193;2;6;Even;Left;Left;0,849378
57;05;1,093984;2;3;Odd;Right;Right;0,5022461
58;05;0,8802408;2;9;Odd;Right;Right;0,8684086
59;05;1,050005;2;8;Even;Left;Left;1,03898
60;05;0,9151801;2;7;Odd;Right;Right;0,3357273
61;05;0,8372868;2;1;Odd;Right;Right;0,736005
62;05;1,284729;2;4;Even;Left;Left;1,272056
64;05;2,156852;2;8;Even;Left;Left;2,146805
65;05;0,9504794;2;6;Even;Left;Left;0,337236
66;05;0,9402291;2;1;Odd;Right;Right;0,4115613
67;05;0,8135347;2;7;Odd;Right;Right;0,4805242
68;05;0,9038677;2;2;Even;Left;Left;0,3902363
69;05;1,174578;2;3;Odd;Right;Right;1,163098
70;05;0,9160824;2;4;Even;Left;Left;0,5027879
71;05;0,8817168;2;9;Odd;Right;Right;0,3282236
73;05;0,8779657;2;2;Even;Left;Left;0,7443007
74;05;1,004953;2;3;Odd;Right;Right;0,9941592
75;05;1,150365;2;8;Even;Left;Left;0,7929975
76;05;0,8909264;2;6;Even;Left;Left;0,2908652
77;05;0,9222435;2;1;Odd;Right;Right;0,4078256
78;05;1,038333;2;7;Odd;Right;Left;0,9863376
79;05;0,8607065;2;4;Even;Left;Left;0,8158514
80;05;1,031561;2;9;Odd;Right;Right;0,3803724
82;05;0,9828573;2;4;Even;Left;Left;0,9729127
83;05;1,340306;2;1;Odd;Right;Right;0,536251
84;05;0,8375086;2;3;Odd;Right;Right;0,3573183
85;05;1,070204;2;2;Even;Left;Left;0,4464805
86;05;1,339138;2;6;Even;Left;Left;0,3579147
87;05;0,9388639;2;8;Even;Left;Left;0,3793045
88;05;0,9497396;2;7;Odd;Right;Right;0,9373677
89;05;1,831016;2;9;Odd;Right;Right;1,820722
91;05;0,8604016;2;1;Odd;Right;Right;0,8490454
92;05;0,9064978;2;7;Odd;Right;Right;0,3242583
93;05;0,8934619;2;9;Odd;Right;Right;0,4238077
94;05;2,080551;2;4;Even;Left;Left;1,608002
95;05;0,884666;2;6;Even;Left;Left;0,3828784
96;05;1,174542;2;3;Odd;Right;Right;0,6608957
97;05;1,811897;2;2;Even;Left;Left;1,260969
98;05;1,128272;2;8;Even;Left;Left;0,4466757
100;05;1,056351;2;8;Even;Left;Left;0,5478693
101;05;0,8389459;2;4;Even;Left;Left;0,3693033
102;05;0,9138001;2;9;Odd;Right;Right;0,9019314
103;05;0,7491786;2;3;Odd;Right;Right;0,7362844
104;05;1,697653;2;2;Even;Left;Left;1,686352
105;05;1,025467;2;6;Even;Left;Left;0,4707111
106;05;1,651909;2;1;Odd;Right;Right;1,64157
107;05;0,8946997;2;7;Odd;Right;Right;0,8826969
109;05;0,999701;2;1;Odd;Right;Right;0,3457124
110;05;0,8591818;2;8;Even;Left;Left;0,8481076
111;05;1,921636;2;2;Even;Left;Left;1,608692
112;05;0,798371;2;4;Even;Left;Left;0,3024607
113;05;0,81473;2;3;Odd;Right;Right;0,803304
114;05;1,038489;2;7;Odd;Right;Right;1,025987
115;05;0,868484;2;9;Odd;Right;Right;0,8378825
116;05;3,906504;2;6;Even;Left;Left;3,392259
118;05;1,035741;2;6;Even;Left;Left;0,500679
119;05;0,9719353;2;1;Odd;Right;Right;0,9605265
120;05;1,018628;2;4;Even;Left;Left;1,007037
121;05;1,463053;2;3;Odd;Right;Right;0,6809372
122;05;1,583158;2;2;Even;Left;Left;1,138149
123;05;0,9715344;2;7;Odd;Right;Right;0,3566164
124;05;1,228395;2;8;Even;Left;Left;0,4395338
125;05;0,8291485;2;9;Odd;Right;Right;0,3260654
127;05;0,9991516;2;8;Even;Left;Left;0,3800895
128;05;1,217858;2;7;Odd;Right;Right;1,07444
129;05;0,9360312;2;3;Odd;Right;Right;0,5000936
130;05;2,859898;2;6;Even;Left;Left;2,245213
131;05;1,105917;2;9;Odd;Right;Right;1,09444
132;05;1,350253;2;2;Even;Left;Left;0,333678
133;05;1,048228;2;1;Odd;Right;Right;0,3781302
134;05;1,139004;2;4;Even;Left;Left;1,127397

