Trial No;Subject ID;Reaction Time;Block No;Stimulus Number;Parity;Correct Response;Actual Response;Response Time
1;09;0,9216853;1;9;Odd;Left;Left;0,8105924
2;09;0,8404384;1;3;Odd;Left;Left;0,817691
3;09;1,740438;1;1;Odd;Left;Left;1,729375
4;09;1,071536;1;6;Even;Right;Right;1,059837
5;09;1,394244;1;8;Even;Right;Right;1,382301
6;09;1,049069;1;4;Even;Right;Right;1,03904
7;09;0,8748131;1;7;Odd;Left;Left;0,3365895
8;09;1,797051;1;2;Even;Right;Right;1,785931
10;09;2,18932;1;7;Odd;Left;Left;2,130526
11;09;0,9157456;1;2;Even;Right;Right;0,9034564
12;09;0,8969566;1;6;Even;Right;Right;0,7055182
13;09;1,252555;1;9;Odd;Left;Left;1,241559
14;09;0,8501896;1;8;Even;Right;Right;0,8394362
15;09;1,165067;1;4;Even;Right;Right;1,075552
16;09;0,8859393;1;1;Odd;Left;Left;0,8298584
17;09;0,8627139;1;3;Odd;Left;Left;0,8512937
19;09;0,8333829;1;8;Even;Right;Right;0,822015
20;09;0,9573448;1;6;Even;Right;Right;0,2884338
21;09;0,8504822;1;4;Even;Right;Right;0,6595399
22;09;0,8391011;1;9;Odd;Left;Left;0,8051552
23;09;0,8634764;1;2;Even;Right;Right;0,8510922
24;09;0,9261842;1;3;Odd;Left;Left;0,3466991
25;09;2,255946;1;1;Odd;Left;Left;2,245372
26;09;0,9574764;1;7;Odd;Left;Left;0,9463155
28;09;0,9078676;1;9;Odd;Left;Left;0,8971862
29;09;0,9721547;1;3;Odd;Left;Left;0,9609157
30;09;0,8591308;1;1;Odd;Left;Left;0,8485228
31;09;0,8148393;1;2;Even;Right;Right;0,8031431
32;09;2,154681;1;8;Even;Right;Right;1,921614
33;09;0,904442;1;7;Odd;Left;Left;0,6230941
34;09;2,291106;1;4;Even;Right;Right;2,254592
35;09;1,049748;1;6;Even;Right;Right;0,7334652
37;09;1,004346;1;1;Odd;Left;Left;0,8281235
38;09;0,9167449;1;9;Odd;Left;Left;0,9055306
39;09;1,19303;1;6;Even;Right;Right;1,159538
40;09;0,7958778;1;3;Odd;Left;Left;0,6187331
41;09;1,216437;1;2;Even;Right;Right;1,038645
42;09;1,005615;1;7;Odd;Left;Left;0,9388973
43;09;0,8628045;1;4;Even;Right;Right;0,5418821
44;09;0,8506023;1;8;Even;Right;Right;0,8171288
46;09;0,9047189;1;3;Odd;Left;Left;0,3137308
47;09;0,9122961;1;8;Even;Right;Right;0,8105723
48;09;0,8747529;1;1;Odd;Left;Left;0,852272
49;09;0,7257009;1;2;Even;Right;Right;0,7142439
50;09;0,8969468;1;6;Even;Right;Right;0,8856654
51;09;0,9491328;1;9;Odd;Left;Left;0,9379877
52;09;5,304178;1;4;Even;Right;Right;5,292937
53;09;1,016816;1;7;Odd;Left;Left;1,006138
55;09;1,058077;1;4;Even;Right;Right;1,047211
56;09;0,8369096;1;1;Odd;Left;Left;0,6190093
57;09;0,8458177;1;6;Even;Right;Right;0,8366726
58;09;1,061651;1;3;Odd;Left;Left;0,8605905
59;09;2,176255;1;7;Odd;Left;Left;2,165633
60;09;1,053544;1;8;Even;Right;Right;1,04216
61;09;1,251219;1;2;Even;Right;Right;1,241985
62;09;1,285626;1;9;Odd;Left;Left;1,22813
64;09;1,068308;1;3;Odd;Left;Left;1,058352
65;09;1,034869;1;1;Odd;Left;Left;1,024377
66;09;1,952489;1;8;Even;Right;Right;1,943297
67;09;1,028421;1;2;Even;Right;Right;1,017954
68;09;0,9484145;1;7;Odd;Left;Left;0,9365237
69;09;0,9288216;1;9;Odd;Left;Left;0,5124592
70;09;1,053159;1;4;Even;Right;Right;1,041874
71;09;1,294233;1;6;Even;Right;Right;1,282271
73;09;0,9596813;1;1;Odd;Left;Left;0,9472018
74;09;0,9635661;1;6;Even;Right;Right;0,9411883
75;09;0,956402;1;2;Even;Right;Right;0,945483
76;09;1,074746;1;4;Even;Right;Right;0,7940202
77;09;1,051728;1;8;Even;Right;Right;1,04068
78;09;0,9613327;1;7;Odd;Left;Left;0,9481009
79;09;0,9576142;1;3;Odd;Left;Left;0,9470369
80;09;1,115042;1;9;Odd;Left;Left;1,104539
82;09;2,475801;1;6;Even;Right;Right;2,352433
83;09;2,043692;1;4;Even;Right;Right;2,032231
84;09;0,91466;1;9;Odd;Left;Left;0,9037878
85;09;0,9603099;1;2;Even;Right;Right;0,9379603
86;09;1,060857;1;3;Odd;Left;Left;0,7266484
87;09;2,042542;1;8;Even;Right;Right;2,031046
88;09;1,274996;1;1;Odd;Left;Left;1,263856
89;09;1,136061;1;7;Odd;Left;Left;1,125547
91;09;1,844903;1;4;Even;Right;Right;1,834646
92;09;1,294554;1;8;Even;Right;Right;1,285057
93;09;0,8832171;1;6;Even;Right;Right;0,8722202
94;09;0,9167458;1;2;Even;Right;Right;0,9056534
95;09;0,9941534;1;7;Odd;Left;Left;0,9829443
96;09;1,094379;1;3;Odd;Left;Left;1,082812
97;09;1,051306;1;9;Odd;Left;Left;1,040209
98;09;1,262301;1;1;Odd;Left;Left;1,249712
100;09;1,288203;1;1;Odd;Left;Left;1,198844
101;09;1,11704;1;7;Odd;Left;Left;1,106001
102;09;1,094472;1;9;Odd;Left;Left;1,083407
103;09;1,842509;1;4;Even;Right;Right;1,831164
104;09;0,8559883;1;3;Odd;Left;Left;0,7138482
105;09;1,335664;1;6;Even;Right;Right;1,326083
106;09;1,016256;1;8;Even;Right;Right;1,003863
107;09;1,214348;1;2;Even;Right;Right;1,206595
109;09;0,9492249;1;9;Odd;Left;Left;0,937643
110;09;2,614371;1;6;Even;Right;Right;2,603295
111;09;0,9041734;1;3;Odd;Left;Left;0,8937072
112;09;1,031774;1;7;Odd;Left;Left;1,020459
113;09;1,652343;1;2;Even;Right;Right;1,642067
114;09;2,130297;1;8;Even;Right;Right;2,121441
115;09;1,60991;1;4;Even;Right;Right;1,598485
116;09;1,217722;1;1;Odd;Left;Left;1,128531
118;09;1,543905;1;7;Odd;Left;Left;1,532738
119;09;0,9174025;1;4;Even;Right;Right;0,9052759
120;09;0,982358;1;8;Even;Right;Right;0,9713563
121;09;2,380278;1;6;Even;Right;Right;2,368685
122;09;1,295137;1;1;Odd;Left;Left;1,28365
123;09;1,005066;1;2;Even;Right;Right;0,9937042
124;09;1,188449;1;3;Odd;Left;Left;1,175201
125;09;1,183324;1;9;Odd;Left;Left;1,172401
127;09;0,8600367;1;6;Even;Right;Right;0,8486829
128;09;1,138191;1;2;Even;Right;Right;1,127111
129;09;1,275694;1;1;Odd;Left;Left;1,268056
130;09;1,105769;1;7;Odd;Left;Left;1,094387
131;09;1,216642;1;3;Odd;Left;Left;1,205874
132;09;1,038522;1;8;Even;Right;Right;1,027163
133;09;1,116321;1;4;Even;Right;Right;1,10522
134;09;1,221203;1;9;Odd;Left;Left;1,197256

