Trial No;Subject ID;Reaction Time;Block No;Stimulus Number;Parity;Correct Response;Actual Response;Response Time
1;14;0,8814966;2;9;Odd;Right;Right;0,5246495
2;14;0,7368126;2;4;Even;Left;Left;0,3796071
3;14;0,937979;2;3;Odd;Right;Right;0,5360396
4;14;0,6793681;2;1;Odd;Right;Right;0,3782274
5;14;0,7449377;2;8;Even;Left;Left;0,458147
6;14;0,759043;2;7;Odd;Right;Right;0,4371468
7;14;0,7379407;2;6;Even;Left;Left;0,435228
8;14;0,8251308;2;2;Even;Left;Right;0,4792514
10;14;1,016939;2;9;Odd;Right;Right;0,7376394
11;14;0,8597919;2;7;Odd;Right;Right;0,5813733
12;14;0,9035507;2;1;Odd;Right;Right;0,5470605
13;14;0,7588009;2;6;Even;Left;Left;0,4700703
14;14;0,6913273;2;4;Even;Left;Left;0,4005224
15;14;2,19436;2;3;Odd;Right;Right;1,803409
16;14;0,749558;2;2;Even;Left;Left;0,4557193
17;14;1,575154;2;8;Even;Left;Left;1,32324
19;14;0,7390954;2;3;Odd;Right;Right;0,436782
20;14;0,7491573;2;1;Odd;Right;Right;0,4383621
21;14;0,7474262;2;8;Even;Left;Left;0,4597796
22;14;0,7825322;2;4;Even;Left;Left;0,4599786
23;14;0,9594175;2;7;Odd;Right;Right;0,6015196
24;14;0,804751;2;2;Even;Left;Left;0,4797509
25;14;2,121222;2;9;Odd;Right;Right;1,842595
26;14;2,325408;2;6;Even;Left;Left;2,023947
28;14;0,7799342;2;4;Even;Left;Left;0,5022773
29;14;0,8604963;2;1;Odd;Right;Right;0,5591443
30;14;0,9297392;2;9;Odd;Right;Right;0,6177953
31;14;0,7496063;2;6;Even;Left;Left;0,3940457
32;14;0,804132;2;8;Even;Left;Left;0,4378017
33;14;0,8145911;2;7;Odd;Right;Right;0,5230085
34;14;1,390211;2;2;Even;Left;Left;1,020446
35;14;0,6367904;2;3;Odd;Right;Right;0,3801091
37;14;0,7612794;2;8;Even;Left;Left;0,5573984
38;14;0,8581195;2;1;Odd;Right;Right;0,5228459
39;14;0,6844405;2;3;Odd;Right;Right;0,4833478
40;14;0,7162355;2;6;Even;Left;Left;0,4781159
41;14;0,7610513;2;7;Odd;Right;Right;0,4841902
42;14;0,7260634;2;9;Odd;Right;Left;0,4800151
43;14;0,7164315;2;4;Even;Left;Left;0,4265246
44;14;0,8501533;2;2;Even;Left;Left;0,5399799
46;14;0,724402;2;4;Even;Left;Left;0,4475409
47;14;0,735725;2;9;Odd;Right;Right;0,6795981
48;14;0,7839736;2;6;Even;Left;Left;0,5073894
49;14;0,8141809;2;7;Odd;Right;Right;0,5225224
50;14;0,7931801;2;1;Odd;Right;Right;0,5013517
51;14;0,7614716;2;3;Odd;Right;Right;0,4805017
52;14;0,7806641;2;8;Even;Left;Left;0,3491906
53;14;0,8238449;2;2;Even;Left;Left;0,5022992
55;14;0,858491;2;1;Odd;Right;Right;0,4888948
56;14;0,7384605;2;6;Even;Left;Left;0,469561
57;14;0,8108707;2;7;Odd;Right;Right;0,4547448
58;14;0,7377731;2;4;Even;Left;Left;0,42321
59;14;0,7567697;2;3;Odd;Right;Right;0,5380599
60;14;0,7515469;2;8;Even;Left;Left;0,4260351
61;14;0,6772262;2;2;Even;Left;Left;0,4031703
62;14;0,7745898;2;9;Odd;Right;Right;0,5588821
64;14;0,9622115;2;1;Odd;Right;Right;0,7056061
65;14;0,7491597;2;8;Even;Left;Left;0,394583
66;14;0,8610885;2;9;Odd;Right;Right;0,4804188
67;14;0,858721;2;3;Odd;Right;Right;0,5575404
68;14;0,7687115;2;4;Even;Left;Left;0,4442393
69;14;0,7360045;2;6;Even;Left;Left;0,478975
70;14;0,7680711;2;2;Even;Left;Left;0,41204
71;14;0,7678766;2;7;Odd;Right;Right;0,510901
73;14;0,88372;2;3;Odd;Right;Right;0,8724644
74;14;0,710875;2;6;Even;Left;Left;0,3770508
75;14;0,8504506;2;8;Even;Left;Left;0,537634
76;14;1,901014;2;1;Odd;Right;Right;1,654044
77;14;0,8974035;2;4;Even;Left;Left;0,5824147
78;14;0,7929062;2;7;Odd;Right;Right;0,513869
79;14;0,9941082;2;2;Even;Left;Left;0,715753
80;14;1,027104;2;9;Odd;Right;Right;0,7607942
82;14;0,7341724;2;4;Even;Left;Left;0,444662
83;14;0,7816358;2;1;Odd;Right;Right;0,4816882
84;14;0,9499078;2;7;Odd;Right;Right;0,7043209
85;14;0,7868691;2;2;Even;Left;Left;0,3800643
86;14;0,7730988;2;8;Even;Left;Left;0,4151429
87;14;0,7829217;2;3;Odd;Right;Right;0,5821847
88;14;1,810219;2;9;Odd;Right;Right;1,406562
89;14;0,763496;2;6;Even;Left;Left;0,3407339
91;14;0,8815564;2;6;Even;Left;Left;0,5822312
92;14;0,8269163;2;2;Even;Left;Left;0,4931729
93;14;0,8643875;2;3;Odd;Right;Right;0,52608
94;14;0,7238058;2;8;Even;Left;Left;0,4204953
95;14;2,021876;2;1;Odd;Right;Right;1,724994
96;14;0,7821105;2;4;Even;Left;Left;0,4477076
97;14;0,7943146;2;7;Odd;Right;Right;0,52583
98;14;1,040942;2;9;Odd;Right;Right;0,7423613
100;14;0,739916;2;3;Odd;Right;Right;0,7288684
101;14;0,6730314;2;8;Even;Left;Left;0,4372977
102;14;0,7724367;2;9;Odd;Right;Right;0,4572534
103;14;0,7584865;2;7;Odd;Right;Right;0,4823699
104;14;1,653475;2;1;Odd;Right;Right;1,27434
105;14;0,6568248;2;6;Even;Left;Left;0,645442
106;14;0,7262668;2;2;Even;Left;Left;0,4246202
107;14;0,759411;2;4;Even;Left;Left;0,5025698
109;14;0,7355216;2;4;Even;Left;Left;0,4578179
110;14;0,7809347;2;9;Odd;Right;Right;0,457873
111;14;0,7037337;2;1;Odd;Right;Right;0,5584588
112;14;0,8052958;2;6;Even;Left;Left;0,7943092
113;14;0,7029004;2;7;Odd;Right;Right;0,4802868
114;14;0,806035;2;3;Odd;Right;Right;0,5158699
115;14;0,6922098;2;8;Even;Left;Left;0,3347936
116;14;0,8379372;2;2;Even;Left;Left;0,5248877
118;14;0,5919362;2;4;Even;Left;Left;0,4330946
119;14;0,6902221;2;6;Even;Left;Left;0,4363216
120;14;1,89806;2;9;Odd;Right;Right;1,541191
121;14;0,8042938;2;2;Even;Left;Left;0,4024772
122;14;0,7371182;2;1;Odd;Right;Right;0,5024782
123;14;0,7155263;2;8;Even;Left;Left;0,7041109
124;14;0,7267228;2;3;Odd;Right;Right;0,5145804
125;14;0,9370427;2;7;Odd;Right;Right;0,5029543
127;14;0,7064273;2;8;Even;Left;Left;0,3379312
128;14;0,7260513;2;6;Even;Left;Left;0,4450549
129;14;0,838087;2;3;Odd;Right;Right;0,536224
130;14;0,8923426;2;7;Odd;Right;Right;0,5801842
131;14;0,8039351;2;1;Odd;Right;Right;0,4797283
132;14;0,7369189;2;2;Even;Left;Left;0,3571943
133;14;1,630706;2;9;Odd;Right;Right;1,318292
134;14;0,7257155;2;4;Even;Left;Left;0,3796868
Trial No;Subject ID;Reaction Time;Block No;Stimulus Number;Parity;Correct Response;Actual Response;Response Time
1;14;0,8575136;1;4;Even;Right;Right;0,6153696
2;14;0,7916228;1;2;Even;Right;Right;0,5788328
3;14;0,7588925;1;3;Odd;Left;Left;0,4580438
4;14;0,7820829;1;8;Even;Right;Right;0,4806787
5;14;0,7366899;1;6;Even;Right;Right;0,5250613
6;14;0,7219809;1;7;Odd;Left;Left;0,4762259
7;14;0,849428;1;1;Odd;Left;Left;0,4578962
8;14;1,61948;1;9;Odd;Left;Left;1,217957
10;14;0,73712;1;3;Odd;Left;Left;0,3776647
11;14;0,6718102;1;7;Odd;Left;Left;0,414946
12;14;0,6435267;1;1;Odd;Left;Left;0,3614399
13;14;0,795482;1;4;Even;Right;Right;0,4134893
14;14;1,598753;1;2;Even;Right;Right;1,306934
15;14;0,7042792;1;9;Odd;Left;Left;0,3804417
16;14;1,117577;1;8;Even;Right;Right;0,9600652
17;14;0,7683957;1;6;Even;Right;Right;0,410102
19;14;0,7163752;1;3;Odd;Left;Left;0,4169473
20;14;1,32901;1;9;Odd;Left;Left;1,073225
21;14;1,89098;1;2;Even;Right;Right;1,801614
22;14;0,7030689;1;7;Odd;Left;Left;0,4148102
23;14;0,7926751;1;8;Even;Right;Right;0,5250029
24;14;0,6987014;1;6;Even;Right;Right;0,4990861
25;14;0,6980543;1;4;Even;Right;Right;0,4194561
26;14;0,7043912;1;1;Odd;Left;Left;0,4803479
28;14;1,6207;1;7;Odd;Left;Left;1,28526
29;14;0,7287094;1;4;Even;Right;Right;0,5613722
30;14;1,696931;1;6;Even;Right;Right;1,416222
31;14;2,072863;1;2;Even;Right;Right;1,737561
32;14;0,8569943;1;8;Even;Right;Right;0,4758491
33;14;0,713735;1;1;Odd;Left;Left;0,4693351
34;14;0,64798;1;3;Odd;Left;Left;0,343053
35;14;0,6482041;1;9;Odd;Left;Left;0,4358669
37;14;1,597954;1;2;Even;Right;Right;1,251545
38;14;0,746103;1;7;Odd;Left;Left;0,3998973
39;14;1,264628;1;9;Odd;Left;Left;0,9930586
40;14;0,9256442;1;6;Even;Right;Right;0,7029815
41;14;0,7125323;1;1;Odd;Left;Left;0,4360671
42;14;1,624109;1;4;Even;Right;Right;1,25637
43;14;0,7593823;1;3;Odd;Left;Left;0,4235446
44;14;1,240521;1;8;Even;Right;Right;1,22764
46;14;0,7605368;1;4;Even;Right;Right;0,3817526
47;14;0,7381099;1;3;Odd;Left;Left;0,4026361
48;14;0,7145733;1;6;Even;Right;Right;0,480581
49;14;0,761695;1;1;Odd;Left;Left;0,7501934
50;14;0,8055212;1;9;Odd;Left;Left;0,4712389
51;14;1,989676;1;8;Even;Right;Right;1,676547
52;14;2,700629;1;2;Even;Right;Right;2,332171
53;14;0,6828673;1;7;Odd;Left;Left;0,3580185
55;14;0,6838704;1;7;Odd;Left;Left;0,5292465
56;14;1,975032;1;2;Even;Right;Right;1,619555
57;14;2,404273;1;4;Even;Right;Right;2,004838
58;14;0,6680636;1;1;Odd;Left;Left;0,3227209
59;14;0,682748;1;6;Even;Right;Right;0,3808098
60;14;0,8086416;1;9;Odd;Left;Left;0,4703932
61;14;1,553964;1;3;Odd;Left;Left;1,26504
62;14;0,8801901;1;8;Even;Right;Right;0,6251329
64;14;1,81138;1;4;Even;Right;Right;1,375839
65;14;1,998469;1;8;Even;Right;Right;1,618566
66;14;0,7737775;1;9;Odd;Left;Left;0,4571021
67;14;0,7379434;1;3;Odd;Left;Left;0,7266354
68;14;0,8316575;1;7;Odd;Left;Left;0,3948649
69;14;1,677307;1;6;Even;Right;Right;1,261271
70;14;0,7245755;1;1;Odd;Left;Left;0,3237996
71;14;0,9394215;1;2;Even;Right;Right;0,762913
73;14;0,7235807;1;1;Odd;Left;Left;0,3808256
74;14;1,762782;1;4;Even;Right;Right;1,303194
75;14;1,240768;1;8;Even;Right;Right;0,816432
76;14;0,6696038;1;9;Odd;Left;Left;0,3827775
77;14;1,039055;1;3;Odd;Left;Left;0,5917596
78;14;0,8708681;1;6;Even;Right;Right;0,4701372
79;14;0,8503689;1;7;Odd;Left;Left;0,4708681
80;14;0,9939148;1;2;Even;Right;Right;0,5915924
82;14;1,742015;1;8;Even;Right;Right;1,317004
83;14;1,040769;1;2;Even;Right;Right;0,6295707
84;14;0,6824179;1;3;Odd;Left;Left;0,5260087
85;14;0,8397152;1;6;Even;Right;Right;0,4941525
86;14;0,7264678;1;1;Odd;Left;Left;0,3364534
87;14;0,8378351;1;9;Odd;Left;Left;0,4022503
88;14;0,8819421;1;4;Even;Right;Right;0,5022876
89;14;0,7497719;1;7;Odd;Left;Left;0,3702284
91;14;0,6923642;1;3;Odd;Left;Left;0,3796332
92;14;0,826937;1;8;Even;Right;Right;0,458165
93;14;0,7595719;1;9;Odd;Left;Left;0,7480125
94;14;0,7372825;1;6;Even;Right;Right;0,4914169
95;14;0,7818325;1;1;Odd;Left;Left;0,3355208
96;14;0,9139214;1;7;Odd;Left;Left;0,4579255
97;14;1,642221;1;4;Even;Right;Right;1,261499
98;14;0,8826194;1;2;Even;Right;Right;0,6474526
100;14;0,8041028;1;8;Even;Right;Right;0,3799402
101;14;0,9496468;1;2;Even;Right;Right;0,5142116
102;14;0,6588593;1;9;Odd;Left;Left;0,3689734
103;14;0,7966418;1;1;Odd;Left;Left;0,3936271
104;14;0,793092;1;3;Odd;Left;Left;0,4133952
105;14;0,9162549;1;4;Even;Right;Right;0,5361798
106;14;0,8476773;1;7;Odd;Left;Left;0,4685751
107;14;0,8244765;1;6;Even;Right;Right;0,5006573
109;14;0,7374083;1;9;Odd;Left;Left;0,3352086
110;14;0,7807547;1;7;Odd;Left;Left;0,3788499
111;14;0,8598136;1;3;Odd;Left;Left;0,368954
112;14;0,8369294;1;1;Odd;Left;Left;0,4021429
113;14;0,9046929;1;8;Even;Right;Right;0,6031923
114;14;0,960931;1;4;Even;Right;Right;0,5822598
115;14;0,7581555;1;2;Even;Right;Right;0,4243438
116;14;0,8034003;1;6;Even;Right;Right;0,4820555
118;14;0,7259192;1;2;Even;Right;Right;0,3676982
119;14;0,8044597;1;6;Even;Right;Right;0,4361999
120;14;0,7237549;1;4;Even;Right;Right;0,4889714
121;14;0,7370079;1;7;Odd;Left;Left;0,4353572
122;14;0,6726785;1;9;Odd;Left;Left;0,3358665
123;14;0,6808738;1;1;Odd;Left;Left;0,3566826
124;14;0,8296674;1;3;Odd;Left;Left;0,7847198
125;14;0,8490102;1;8;Even;Right;Right;0,4915404
127;14;0,8623278;1;4;Even;Right;Right;0,8513259
128;14;0,6477128;1;1;Odd;Left;Left;0,4462683
129;14;0,7039074;1;7;Odd;Left;Left;0,4466622
130;14;0,7372831;1;9;Odd;Left;Left;0,4022129
131;14;0,7931592;1;3;Odd;Left;Left;0,509152
132;14;1,619148;1;8;Even;Right;Right;1,161743
133;14;0,83748;1;6;Even;Right;Right;0,4245081
134;14;0,8375853;1;2;Even;Right;Right;0,4583428

