Trial No;Subject ID;Reaction Time;Block No;Stimulus Number;Parity;Correct Response;Actual Response;Response Time
1;11;1,027213;1;2;Even;Right;Right;0,1784741
2;11;0,8050597;1;9;Odd;Left;Left;0,1342174
3;11;1,574199;1;8;Even;Right;Right;0,7211732
4;11;0,6935328;1;7;Odd;Left;Left;0,1789895
5;11;1,61854;1;1;Odd;Left;Left;0,1790775
6;11;10,29639;1;3;Odd;Left;Left;7,898984
7;11;0,8694634;1;6;Even;Right;Right;0,1901494
8;11;0,9815778;1;4;Even;Right;Right;0,1776201
10;11;0,8048148;1;1;Odd;Left;Left;0,1345618
11;11;3,08385;1;2;Even;Right;Right;0,7944729
12;11;0,9510319;1;9;Odd;Left;Left;0,1779796
13;11;1,092951;1;4;Even;Right;Right;0,1797591
14;11;0,8479663;1;8;Even;Right;Right;0,8367507
15;11;0,885145;1;7;Odd;Left;Left;0,1570541
16;11;1,318661;1;3;Odd;Left;Left;0,1924032
17;11;0,8481182;1;6;Even;Right;Right;0,1114773
19;11;0,9055951;1;3;Odd;Left;Left;0,3024707
20;11;1,059209;1;6;Even;Right;Right;0,1788645
21;11;0,6727564;1;7;Odd;Left;Left;0,1801312
22;11;6,119737;1;8;Even;Right;Right;6,019847
23;11;0,9539742;1;4;Even;Right;Right;0,186305
24;11;1,251066;1;9;Odd;Left;Left;0,2792774
25;11;1,439242;1;2;Even;Right;Right;0,2244496
26;11;0,8713495;1;1;Odd;Left;Left;0,6593131
28;11;25,9349;1;1;Odd;Left;Left;25,01864
29;11;1,031189;1;8;Even;Right;Right;0,214049
30;11;1,340002;1;3;Odd;Left;Left;0,2118746
31;11;0,8792462;1;4;Even;Right;Right;0,1981871
32;11;1,073351;1;2;Even;Right;Right;1,062114
33;11;0,8135816;1;6;Even;Right;Right;0,2016641
34;11;0,8161435;1;9;Odd;Left;Left;0,1594971
35;11;4,722667;1;7;Odd;Left;Left;4,71153
37;11;0,7160919;1;8;Even;Right;Right;0,2125286
38;11;0,7398832;1;1;Odd;Left;Left;0,2031893
39;11;2,001374;1;7;Odd;Left;Left;1,979645
40;11;1,070021;1;9;Odd;Left;Left;0,2319093
41;11;1,49633;1;2;Even;Right;Right;0,2371526
42;11;0,8744097;1;4;Even;Right;Right;0,2023065
43;11;1,351329;1;6;Even;Right;Right;0,2343692
44;11;0,8036267;1;3;Odd;Left;Left;0,2243705
46;11;1,24942;1;7;Odd;Left;Left;0,1910598
47;11;0,958281;1;1;Odd;Left;Left;0,2662134
48;11;0,8679901;1;8;Even;Right;Right;0,1957192
49;11;0,7598765;1;3;Odd;Left;Left;0,2016474
50;11;1,139162;1;4;Even;Right;Right;0,2234088
51;11;1,384598;1;9;Odd;Left;Left;0,1907542
52;11;0,8404353;1;2;Even;Right;Right;0,2133457
53;11;0,8479242;1;6;Even;Right;Right;0,2338302
55;11;1,062198;1;1;Odd;Left;Left;0,1792483
56;11;0,9125202;1;8;Even;Right;Right;0,179101
57;11;1,539736;1;7;Odd;Left;Left;0,1988839
58;11;1,241589;1;3;Odd;Left;Left;1,230375
59;11;2,5468;1;9;Odd;Left;Left;1,230302
60;11;0,8836882;1;4;Even;Right;Right;0,2342198
61;11;1,873331;1;2;Even;Right;Right;1,201251
62;11;0,8606204;1;6;Even;Right;Right;0,1999617
64;11;0,7587356;1;7;Odd;Left;Left;0,2008119
65;11;1,136793;1;4;Even;Right;Right;0,2234705
66;11;0,8381721;1;1;Odd;Left;Left;0,2211204
67;11;0,9052658;1;2;Even;Right;Right;0,2260925
68;11;1,171941;1;3;Odd;Left;Left;0,2348287
69;11;0,7044141;1;8;Even;Right;Right;0,1790072
70;11;1,118892;1;9;Odd;Left;Left;0,2031606
71;11;0,7917796;1;6;Even;Right;Right;0,2009155
73;11;1,426748;1;7;Odd;Left;Left;0,1783397
74;11;1,216251;1;9;Odd;Left;Left;0,1901553
75;11;1,072657;1;8;Even;Right;Right;0,2137887
76;11;1,129066;1;3;Odd;Left;Left;0,2221203
77;11;0,8058071;1;1;Odd;Left;Left;0,2463471
78;11;0,6935213;1;4;Even;Right;Right;0,1792158
79;11;1,016163;1;6;Even;Right;Right;0,1561191
80;11;0,8156183;1;2;Even;Right;Right;0,1786369
82;11;0,6818037;1;4;Even;Right;Right;0,2010797
83;11;0,7042931;1;8;Even;Right;Right;0,1790549
84;11;1,161919;1;1;Odd;Left;Left;0,6622528
85;11;1,11845;1;9;Odd;Left;Left;0,180181
86;11;1,006249;1;6;Even;Right;Right;0,2093338
87;11;1,185156;1;2;Even;Right;Right;0,191218
88;11;0,8149676;1;7;Odd;Left;Left;0,1530636
89;11;0,8492082;1;3;Odd;Left;Left;0,1789305
91;11;0,8379076;1;2;Even;Right;Right;0,1300753
92;11;1,307369;1;9;Odd;Left;Left;0,2010775
93;11;0,8839623;1;7;Odd;Left;Left;0,1677914
94;11;0,9252177;1;1;Odd;Left;Left;0,1453843
95;11;0,8147274;1;8;Even;Right;Right;0,1792631
96;11;2,015425;1;3;Odd;Left;Left;1,017309
97;11;0,7379342;1;4;Even;Right;Right;0,1558765
98;11;2,032616;1;6;Even;Right;Right;0,9159825
100;11;0,8365386;1;4;Even;Right;Right;0,1648883
101;11;1,411342;1;7;Odd;Left;Left;0,158164
102;11;0,7034632;1;1;Odd;Left;Left;0,1798499
103;11;1,038101;1;9;Odd;Left;Left;0,1897109
104;11;0,8703508;1;6;Even;Right;Right;0,1571238
105;11;0,9272172;1;3;Odd;Left;Left;0,1571757
106;11;0,7594089;1;8;Even;Right;Right;0,1452535
107;11;0,9312406;1;2;Even;Right;Right;0,1553053
109;11;0,8962671;1;6;Even;Right;Right;0,1686133
110;11;0,6363553;1;1;Odd;Left;Left;0,1579221
111;11;0,9360768;1;9;Odd;Left;Left;0,1429033
112;11;0,8489811;1;8;Even;Right;Right;0,1674191
113;11;1,303328;1;2;Even;Right;Right;0,4764987
114;11;1,084963;1;7;Odd;Left;Left;0,1573138
115;11;0,6603984;1;3;Odd;Left;Left;0,1903251
116;11;0,7149506;1;4;Even;Right;Right;0,1581104
118;11;0,8149351;1;1;Odd;Left;Left;0,1566732
119;11;1,261356;1;6;Even;Right;Right;0,4575279
120;11;0,6798975;1;2;Even;Right;Right;0,1786084
121;11;0,8509178;1;9;Odd;Left;Left;0,2471529
122;11;0,8047537;1;7;Odd;Left;Left;0,2246045
123;11;0,8490329;1;8;Even;Right;Right;0,1576895
124;11;0,7796556;1;4;Even;Right;Right;0,2013165
125;11;0,8965397;1;3;Odd;Left;Left;0,2338794
127;11;0,7490863;1;1;Odd;Left;Left;0,6714741
128;11;1,115675;1;8;Even;Right;Right;0,1775802
129;11;0,7349476;1;4;Even;Right;Right;0,2217121
130;11;0,8950661;1;9;Odd;Left;Left;0,1799514
131;11;0,8166608;1;3;Odd;Left;Left;0,2116655
132;11;0,8002348;1;6;Even;Right;Right;0,1789192
133;11;0,848399;1;7;Odd;Left;Left;0,1566724
134;11;0,8241747;1;2;Even;Right;Right;0,1669669

