Trial No;Subject ID;Reaction Time;Block No;Stimulus Number;Parity;Correct Response;Actual Response;Response Time
1;17;2,324601;1;1;Odd;Left;Left;0,4355049
2;17;1,286026;1;2;Even;Right;Right;0,502369
3;17;1,240764;1;9;Odd;Left;Left;0,3582922
4;17;1,084314;1;8;Even;Right;Right;0,3353099
5;17;1,261689;1;4;Even;Right;Right;0,358757
6;17;1,084282;1;6;Even;Right;Right;0,3491623
7;17;0,9270111;1;7;Odd;Left;Left;0,3230467
8;17;1,063207;1;3;Odd;Left;Left;0,4055254
10;17;1,102194;1;8;Even;Right;Right;0,3124356
11;17;0,9357138;1;7;Odd;Left;Left;0,3022748
12;17;1,071692;1;1;Odd;Left;Left;0,356957
13;17;1,474782;1;6;Even;Right;Right;0,3577963
14;17;1,216553;1;9;Odd;Left;Left;0,3788069
15;17;1,363333;1;4;Even;Right;Right;0,3802957
16;17;1,831543;1;3;Odd;Left;Left;0,4352705
17;17;2,345198;1;2;Even;Right;Right;0,5246131
19;17;1,77584;1;4;Even;Right;Right;0,4250036
20;17;2,458068;1;7;Odd;Left;Left;0,9048198
21;17;1,170119;1;6;Even;Right;Right;0,4344491
22;17;1,985992;1;2;Even;Right;Right;0,4889958
23;17;1,206174;1;9;Odd;Left;Left;0,3584653
24;17;1,273361;1;8;Even;Right;Left;0,4029229
25;17;1,775657;1;1;Odd;Left;Left;0,5580599
26;17;2,09166;1;3;Odd;Left;Left;0,5137134
28;17;2,356752;1;8;Even;Right;Right;0,8601675
29;17;1,194719;1;3;Odd;Left;Left;0,3800367
30;17;1,227782;1;2;Even;Right;Right;0,3354979
31;17;1,92111;1;6;Even;Right;Right;0,3466578
32;17;1,273425;1;1;Odd;Left;Left;0,3158087
33;17;2,982087;1;9;Odd;Left;Left;0,7259488
34;17;1,694211;1;4;Even;Right;Right;0,4201049
35;17;2,256534;1;7;Odd;Left;Left;0,6035544
37;17;2,055811;1;4;Even;Right;Right;0,3794789
38;17;2,202025;1;7;Odd;Left;Left;1,241782
39;17;1,083674;1;9;Odd;Left;Left;0,302438
40;17;1,168288;1;2;Even;Right;Right;0,2898472
41;17;1,54164;1;8;Even;Right;Right;0,639127
42;17;1,116002;1;1;Odd;Left;Left;0,3792391
43;17;1,324271;1;3;Odd;Left;Left;0,2802196
44;17;1,124252;1;6;Even;Right;Right;0,3433975
46;17;1,161844;1;7;Odd;Left;Left;0,3465672
47;17;1,233143;1;3;Odd;Left;Left;0,357493
48;17;1,196183;1;2;Even;Right;Right;0,3574421
49;17;3,574298;1;4;Even;Right;Right;0,3789608
50;17;1,116195;1;9;Odd;Left;Left;0,3253688
51;17;1,016316;1;1;Odd;Left;Left;0,3243157
52;17;1,076356;1;6;Even;Right;Right;0,3025877
53;17;0,935934;1;8;Even;Right;Right;0,3816326
55;17;1,059762;1;6;Even;Right;Right;0,3150377
56;17;1,083831;1;3;Odd;Left;Left;0,2839614
57;17;1,23276;1;8;Even;Right;Right;0,3010471
58;17;1,396943;1;1;Odd;Left;Left;0,3028377
59;17;1,17108;1;4;Even;Right;Right;0,3824699
60;17;1,307175;1;9;Odd;Left;Left;0,3674913
61;17;1,586648;1;2;Even;Right;Right;0,3015544
62;17;1,541507;1;7;Odd;Left;Left;0,3568438
64;17;1,0047;1;7;Odd;Left;Left;0,3010563
65;17;1,263111;1;1;Odd;Left;Left;0,280207
66;17;0,9827743;1;3;Odd;Left;Left;0,3016163
67;17;1,386128;1;4;Even;Right;Right;0,2790821
68;17;1,218138;1;6;Even;Right;Right;0,3940183
69;17;1,496351;1;9;Odd;Left;Left;0,3237958
70;17;3,149955;1;2;Even;Right;Right;1,084502
71;17;1,21771;1;8;Even;Right;Right;0,4343404
73;17;1,428922;1;1;Odd;Left;Left;0,3567226
74;17;1,485323;1;8;Even;Right;Right;0,3240747
75;17;1,419585;1;6;Even;Right;Right;0,5817776
76;17;1,057518;1;2;Even;Right;Right;0,3985993
77;17;1,630954;1;9;Odd;Left;Left;0,3349422
78;17;1,041827;1;7;Odd;Left;Left;0,3156725
79;17;1,262132;1;4;Even;Right;Right;0,4237907
80;17;1,239281;1;3;Odd;Left;Left;0,3162857
82;17;1,273654;1;2;Even;Right;Right;0,3788456
83;17;1,900228;1;9;Odd;Left;Left;0,5250024
84;17;1,150591;1;7;Odd;Left;Left;0,3355023
85;17;2,099585;1;6;Even;Right;Right;0,4583265
86;17;1,318445;1;3;Odd;Left;Left;0,425218
87;17;1,397658;1;8;Even;Right;Right;0,4597039
88;17;3,211226;1;4;Even;Right;Right;0,4580779
89;17;1,194779;1;1;Odd;Left;Left;0,3612601
91;17;1,552495;1;4;Even;Right;Right;0,390905
92;17;1,753465;1;1;Odd;Left;Left;0,335153
93;17;1,854338;1;2;Even;Right;Right;0,3357425
94;17;2,872795;1;3;Odd;Left;Left;1,018714
95;17;1,115932;1;8;Even;Right;Right;0,2999645
96;17;1,352091;1;9;Odd;Left;Left;0,3129442
97;17;2,056343;1;6;Even;Right;Right;0,2800751
98;17;1,396197;1;7;Odd;Left;Left;0,4358216
100;17;1,248548;1;2;Even;Right;Right;0,3902215
101;17;1,356992;1;7;Odd;Left;Left;0,3856403
102;17;1,284145;1;8;Even;Right;Right;0,4248363
103;17;1,419067;1;1;Odd;Left;Left;0,3916197
104;17;1,669075;1;9;Odd;Left;Left;0,3581883
105;17;1,329709;1;6;Even;Right;Right;0,4361076
106;17;1,250918;1;4;Even;Right;Right;0,4377092
107;17;1,429694;1;3;Odd;Left;Left;0,4369366
109;17;1,206335;1;7;Odd;Left;Left;0,4020672
110;17;1,296159;1;1;Odd;Left;Left;0,3924748
111;17;1,329195;1;2;Even;Right;Right;0,5133634
112;17;1,318136;1;4;Even;Right;Right;0,4366266
113;17;1,162038;1;9;Odd;Left;Left;0,380121
114;17;3,115961;1;8;Even;Right;Right;0,6385479
115;17;1,987484;1;6;Even;Right;Right;0,4246306
116;17;1,474042;1;3;Odd;Left;Left;0,412912
118;17;4,857726;1;9;Odd;Left;Left;2,355277
119;17;1,128878;1;3;Odd;Left;Left;0,3843578
120;17;1,420878;1;4;Even;Right;Right;0,4575784
121;17;1,261761;1;1;Odd;Left;Left;0,4021069
122;17;1,367797;1;6;Even;Right;Right;0,4356091
123;17;1,799287;1;2;Even;Right;Right;0,4035783
124;17;1,083335;1;7;Odd;Left;Left;0,3033837
125;17;2,200577;1;8;Even;Right;Right;1,038697
127;17;0,9828182;1;8;Even;Right;Right;0,3804197
128;17;1,374048;1;4;Even;Right;Right;0,4191089
129;17;0,9575571;1;6;Even;Right;Right;0,3357082
130;17;1,013316;1;3;Odd;Left;Left;0,3345621
131;17;3,039579;1;9;Odd;Left;Left;0,4027956
132;17;1,159664;1;1;Odd;Left;Left;0,3348798
133;17;0,9270188;1;7;Odd;Left;Left;0,3353566
134;17;1,162748;1;2;Even;Right;Right;0,3579901
Trial No;Subject ID;Reaction Time;Block No;Stimulus Number;Parity;Correct Response;Actual Response;Response Time
1;17;2,477992;2;2;Even;Left;Left;0,6794344
2;17;1,197611;2;7;Odd;Right;Right;0,3831816
3;17;1,900119;2;6;Even;Left;Left;0,5378124
4;17;1,280468;2;1;Odd;Right;Right;0,4426267
5;17;1,016637;2;4;Even;Left;Left;0,3570895
6;17;1,38398;2;8;Even;Left;Left;0,6019518
7;17;1,296052;2;3;Odd;Right;Right;0,4148335
8;17;1,976748;2;9;Odd;Right;Right;1,299869
10;17;1,630956;2;4;Even;Left;Left;0,4919987
11;17;2,213549;2;1;Odd;Right;Right;1,173937
12;17;2,021983;2;2;Even;Left;Left;0,5365734
13;17;1,361811;2;7;Odd;Right;Right;0,4459625
14;17;1,9441;2;3;Odd;Right;Right;0,5029026
15;17;2,333695;2;6;Even;Left;Left;0,5022953
16;17;2,602063;2;9;Odd;Right;Right;1,217444
17;17;2,062968;2;8;Even;Left;Left;0,4438838
19;17;3,485085;2;8;Even;Left;Left;0,4018364
20;17;3,576046;2;4;Even;Left;Left;0,6476991
21;17;2,413147;2;9;Odd;Right;Right;1,329529
22;17;1,675096;2;2;Even;Left;Left;0,3568535
23;17;1,531889;2;3;Odd;Right;Right;0,4362925
24;17;1,97569;2;6;Even;Left;Left;0,4577098
25;17;1,75283;2;1;Odd;Right;Right;0,391278
26;17;3,376321;2;7;Odd;Right;Right;1,299559
28;17;1,834874;2;2;Even;Left;Left;0,5812408
29;17;1,430327;2;7;Odd;Right;Right;0,4349688
30;17;1,397102;2;3;Odd;Right;Right;0,471297
31;17;1,518797;2;8;Even;Left;Left;0,4013351
32;17;1,138842;2;4;Even;Left;Left;0,3672949
33;17;1,943193;2;6;Even;Left;Left;0,3260348
34;17;1,386284;2;9;Odd;Right;Right;0,347253
35;17;1,350921;2;1;Odd;Right;Right;0,357567
37;17;1,284766;2;3;Odd;Right;Right;0,4015811
38;17;1,29632;2;7;Odd;Right;Right;0,4133356
39;17;1,072141;2;2;Even;Left;Left;0,3581663
40;17;1,016003;2;8;Even;Left;Left;0,4017024
41;17;1,082779;2;6;Even;Left;Left;0,3786362
42;17;1,162907;2;4;Even;Left;Left;0,4029191
43;17;1,374273;2;9;Odd;Right;Right;0,4363676
44;17;1,341648;2;1;Odd;Right;Right;0,460646
46;17;1,295612;2;9;Odd;Right;Right;0,5152574
47;17;1,765785;2;7;Odd;Right;Right;0,4252821
48;17;1,401338;2;1;Odd;Right;Right;0,5655041
49;17;1,183264;2;2;Even;Left;Left;0,4011594
50;17;1,394423;2;3;Odd;Right;Right;0,4349644
51;17;1,202433;2;4;Even;Left;Left;0,3733808
52;17;1,866663;2;6;Even;Left;Left;0,491819
53;17;1,238989;2;8;Even;Left;Left;0,5169381
55;17;1,775068;2;9;Odd;Right;Right;0,6579713
56;17;1,341597;2;7;Odd;Right;Right;0,5267396
57;17;1,140042;2;1;Odd;Right;Right;0,4249811
58;17;1,06101;2;3;Odd;Right;Right;0,3812684
59;17;1,172891;2;2;Even;Left;Left;0,4361277
60;17;1,150216;2;6;Even;Left;Left;0,4353574
61;17;1,060366;2;8;Even;Left;Left;0,42479
62;17;1,08332;2;4;Even;Left;Left;0,3933914
64;17;1,195743;2;7;Odd;Right;Right;0,4359027
65;17;1,648954;2;6;Even;Left;Left;0,6548601
66;17;1,252512;2;3;Odd;Right;Right;0,3592904
67;17;1,476768;2;2;Even;Left;Left;0,4244275
68;17;1,927518;2;1;Odd;Right;Right;0,4639739
69;17;1,318274;2;4;Even;Left;Left;0,4139556
70;17;2,535773;2;9;Odd;Right;Right;1,17348
71;17;1,217492;2;8;Even;Left;Left;0,3815888
73;17;1,038752;2;2;Even;Left;Left;0,325057
74;17;1,51854;2;7;Odd;Right;Right;0,3147682
75;17;1,273326;2;3;Odd;Right;Right;0,3930382
76;17;1,853536;2;8;Even;Left;Left;0,4381611
77;17;0,9936627;2;6;Even;Left;Left;0,3792034
78;17;1,173304;2;1;Odd;Right;Right;0,3803798
79;17;1,619538;2;4;Even;Left;Left;0,4027252
80;17;1,251211;2;9;Odd;Right;Right;0,4022958
82;17;2,000143;2;1;Odd;Right;Right;0,5031432
83;17;0,9941252;2;6;Even;Left;Left;0,3457009
84;17;1,267242;2;3;Odd;Right;Right;0,414475
85;17;3,864337;2;2;Even;Left;Left;0,7260501
86;17;0,9599605;2;4;Even;Left;Left;0,3020228
87;17;1,995193;2;8;Even;Left;Left;0,3009576
88;17;1,462651;2;9;Odd;Right;Right;0,3790684
89;17;1,072219;2;7;Odd;Right;Right;0,3015882
91;17;1,037862;2;8;Even;Left;Left;0,3135238
92;17;1,696605;2;7;Odd;Right;Right;0,3131642
93;17;1,722116;2;4;Even;Left;Left;0,7501945
94;17;1,407515;2;1;Odd;Right;Right;0,4461531
95;17;1,173474;2;6;Even;Left;Left;0,3360771
96;17;1,139912;2;2;Even;Left;Left;0,3349971
97;17;1,340507;2;9;Odd;Right;Right;0,4777798
98;17;1,743369;2;3;Odd;Right;Right;0,5029818
100;17;1,217457;2;9;Odd;Right;Right;0,4018166
101;17;2,398997;2;7;Odd;Right;Right;1,563985
102;17;2,257644;2;4;Even;Left;Left;0,7592967
103;17;2,256089;2;6;Even;Left;Left;0,5811589
104;17;1,318428;2;3;Odd;Right;Right;0,4030842
105;17;2,112311;2;2;Even;Left;Left;0,6933562
106;17;1,619124;2;8;Even;Left;Left;0,5496674
107;17;2,078202;2;1;Odd;Right;Right;0,5032235
109;17;1,226792;2;1;Odd;Right;Right;0,4086651
110;17;1,072014;2;8;Even;Left;Left;0,4354815
111;17;1,613151;2;2;Even;Left;Left;0,3578104
112;17;1,437179;2;6;Even;Left;Left;0,4207103
113;17;1,216171;2;9;Odd;Right;Right;0,4105769
114;17;1,251775;2;4;Even;Left;Left;0,4372449
115;17;1,54164;2;7;Odd;Right;Right;0,48068
116;17;1,235296;2;3;Odd;Right;Right;0,3800267
118;17;1,960356;2;1;Odd;Right;Right;0,4411128
119;17;1,150916;2;9;Odd;Right;Right;0,3581771
120;17;1,11668;2;6;Even;Left;Left;0,4007071
121;17;1,462486;2;2;Even;Left;Left;0,4350892
122;17;1,519184;2;8;Even;Left;Left;0,3771586
123;17;1,65242;2;3;Odd;Right;Right;0,3793889
124;17;1,239705;2;7;Odd;Right;Right;0,3951278
125;17;1,236801;2;4;Even;Left;Left;0,3130718
127;17;1,086399;2;4;Even;Left;Left;0,3782502
128;17;1,175383;2;6;Even;Left;Left;0,404098
129;17;2,055015;2;7;Odd;Right;Right;0,5806192
130;17;1,105731;2;2;Even;Left;Left;0,3686627
131;17;1,296115;2;1;Odd;Right;Right;0,4256982
132;17;1,137362;2;9;Odd;Right;Right;0,4223469
133;17;1,362858;2;3;Odd;Right;Right;0,4023511
134;17;1,153493;2;8;Even;Left;Left;0,2906808

