Trial No;Subject ID;Reaction Time;Block No;Stimulus Number;Parity;Correct Response;Actual Response;Response Time
1;25;1,509123;2;1;Odd;Right;Right;0,4337456
2;25;0,8747689;2;3;Odd;Right;Right;0,2128872
3;25;0,8921077;2;7;Odd;Right;Right;0,2344346
4;25;1,100889;2;8;Even;Left;Left;0,2365571
5;25;1,308284;2;6;Even;Left;Left;0,2013676
6;25;0,717026;2;2;Even;Left;Left;0,1814268
7;25;1,115207;2;9;Odd;Right;Right;0,201212
8;25;1,215844;2;4;Even;Left;Left;0,245091
10;25;0,7596674;2;4;Even;Left;Left;0,3040478
11;25;0,8017306;2;8;Even;Left;Left;0,7909244
12;25;0,6923104;2;2;Even;Left;Left;0,2013339
13;25;0,9361279;2;3;Odd;Right;Right;0,246049
14;25;2,75819;2;7;Odd;Right;Right;1,798149
15;25;0,7927322;2;9;Odd;Right;Right;0,2457712
16;25;0,9209985;2;6;Even;Left;Left;0,2048932
17;25;2,499914;2;1;Odd;Right;Right;1,682987
19;25;1,219977;2;7;Odd;Right;Right;0,2466595
20;25;0,958909;2;1;Odd;Right;Right;0,221857
21;25;1,082899;2;4;Even;Left;Left;0,2676541
22;25;0,9164951;2;3;Odd;Right;Right;0,2233335
23;25;1,296116;2;6;Even;Left;Left;0,257603
24;25;1,139812;2;9;Odd;Right;Right;0,2678806
25;25;1,874775;2;2;Even;Left;Left;0,2800019
26;25;0,9735638;2;8;Even;Left;Left;0,2123969
28;25;0,9522146;2;4;Even;Left;Left;0,2457254
29;25;1,675137;2;9;Odd;Right;Right;0,2356533
30;25;4,221958;2;7;Odd;Right;Right;2,424073
31;25;1,060375;2;8;Even;Left;Left;0,2776481
32;25;0,8163238;2;6;Even;Left;Left;0,2571106
33;25;1,515054;2;3;Odd;Right;Right;0,9347809
34;25;0,9050692;2;2;Even;Left;Left;0,2898664
35;25;0,9802874;2;1;Odd;Right;Right;0,2552591
37;25;0,9167476;2;9;Odd;Right;Right;0,2364456
38;25;1,138436;2;4;Even;Left;Left;0,2563502
39;25;0,9606191;2;1;Odd;Right;Right;0,2451428
40;25;3,573158;2;7;Odd;Right;Right;0,3573411
41;25;0,9021063;2;6;Even;Left;Left;0,2007033
42;25;0,8947428;2;8;Even;Left;Left;0,2580471
43;25;0,8943467;2;2;Even;Left;Left;0,2800609
44;25;0,8698384;2;3;Odd;Right;Right;0,2347996
46;25;0,959673;2;1;Odd;Right;Right;0,2241649
47;25;1,060326;2;2;Even;Left;Left;0,2350148
48;25;0,8789576;2;7;Odd;Right;Right;0,2225743
49;25;0,9143943;2;3;Odd;Right;Right;0,2132693
50;25;1,151448;2;6;Even;Left;Left;0,2015509
51;25;0,7919527;2;4;Even;Left;Left;0,7359153
52;25;0,8694269;2;9;Odd;Right;Right;0,2011555
53;25;1,118386;2;8;Even;Left;Left;0,2455204
55;25;0,9195802;2;8;Even;Left;Left;0,2586327
56;25;0,8149313;2;2;Even;Left;Left;0,1781989
57;25;0,8369167;2;1;Odd;Right;Right;0,2003948
58;25;0,8163812;2;6;Even;Left;Left;0,1788684
59;25;0,9865898;2;7;Odd;Right;Right;0,8859508
60;25;0,7797051;2;4;Even;Left;Left;0,224065
61;25;0,7607231;2;3;Odd;Right;Right;0,1788843
62;25;1,919689;2;9;Odd;Right;Right;1,016945
64;25;0,8846043;2;1;Odd;Right;Right;0,2017974
65;25;0,8149281;2;7;Odd;Right;Right;0,2105165
66;25;0,8147388;2;9;Odd;Right;Right;0,167932
67;25;0,9154672;2;6;Even;Left;Left;0,1786034
68;25;0,9586328;2;2;Even;Left;Left;0,2432274
69;25;0,9063601;2;4;Even;Left;Left;0,1808093
70;25;1,014143;2;8;Even;Left;Left;0,202629
71;25;1,161358;2;3;Odd;Right;Right;0,2587362
73;25;1,031119;2;4;Even;Left;Left;0,2598158
74;25;0,7027609;2;6;Even;Left;Left;0,1778259
75;25;0,9055753;2;7;Odd;Right;Right;0,2587972
76;25;0,8501305;2;8;Even;Left;Left;0,1788048
77;25;1,026011;2;9;Odd;Right;Right;0,1653625
78;25;0,8725926;2;2;Even;Left;Left;0,1341873
79;25;0,8110117;2;3;Odd;Right;Right;0,1744539
80;25;0,7575976;2;1;Odd;Right;Right;0,1340933
82;25;0,7587989;2;4;Even;Left;Left;0,1458126
83;25;0,7060938;2;2;Even;Left;Left;0,1804387
84;25;1,721996;2;3;Odd;Right;Right;1,062131
85;25;0,8942947;2;6;Even;Left;Left;0,1571788
86;25;0,8370719;2;7;Odd;Right;Right;0,1900722
87;25;0,7364388;2;9;Odd;Right;Right;0,1784324
88;25;1,250655;2;1;Odd;Right;Right;0,2133118
89;25;0,9259061;2;8;Even;Left;Left;0,1453384
91;25;0,9382542;2;3;Odd;Right;Right;0,1788974
92;25;0,7261221;2;9;Odd;Right;Right;0,1567886
93;25;0,7164844;2;2;Even;Left;Left;0,1448528
94;25;0,7177379;2;4;Even;Left;Left;0,1790677
95;25;0,9509666;2;1;Odd;Right;Right;0,1680428
96;25;0,6364514;2;7;Odd;Right;Right;0,1790373
97;25;0,7912997;2;6;Even;Left;Left;0,1569004
98;25;0,8486858;2;8;Even;Left;Left;0,2031392
100;25;0,9511499;2;3;Odd;Right;Right;0,2227576
101;25;0,8403787;2;4;Even;Left;Left;0,1810176
102;25;0,8238385;2;9;Odd;Right;Right;0,199513
103;25;1,975863;2;1;Odd;Right;Right;0,200559
104;25;0,8731086;2;7;Odd;Right;Right;0,1790299
105;25;0,8582802;2;6;Even;Left;Left;0,1978396
106;25;1,43837;2;2;Even;Left;Left;0,7919309
107;25;0,8503157;2;8;Even;Left;Left;0,1680706
109;25;0,8045889;2;3;Odd;Right;Right;0,2001445
110;25;0,904487;2;8;Even;Left;Left;0,1337106
111;25;1,809575;2;9;Odd;Right;Right;0,9708096
112;25;0,8854305;2;4;Even;Left;Left;0,2014315
113;25;0,9826085;2;1;Odd;Right;Right;0,9716281
114;25;0,7713526;2;7;Odd;Right;Right;0,223223
115;25;1,003555;2;6;Even;Left;Left;0,2460553
116;25;0,8611544;2;2;Even;Left;Left;0,8498521
118;25;0,7827236;2;4;Even;Left;Left;0,2221448
119;25;1,016369;2;3;Odd;Right;Right;0,2224889
120;25;0,8722194;2;1;Odd;Right;Right;0,1898957
121;25;0,8340552;2;8;Even;Left;Left;0,1790662
122;25;1,062536;2;2;Even;Left;Left;0,2011685
123;25;0,8595107;2;9;Odd;Right;Right;0,8464218
124;25;0,793958;2;7;Odd;Right;Right;0,2134604
125;25;0,9810707;2;6;Even;Left;Left;0,2338388
127;25;0,794731;2;6;Even;Left;Left;0,1802737
128;25;2,142147;2;7;Odd;Right;Right;1,527706
129;25;0,8610947;2;9;Odd;Right;Right;0,2456682
130;25;0,858976;2;1;Odd;Right;Right;0,222508
131;25;0,9184503;2;2;Even;Left;Left;0,1797649
132;25;1,196271;2;4;Even;Left;Left;0,179332
133;25;0,716629;2;8;Even;Left;Left;0,224235
134;25;0,8922586;2;3;Odd;Right;Right;0,8808398
Trial No;Subject ID;Reaction Time;Block No;Stimulus Number;Parity;Correct Response;Actual Response;Response Time
1;25;7,249387;1;2;Even;Right;Right;7,237437
2;25;1,537244;1;3;Odd;Left;Left;0,4768384
3;25;1,038153;1;1;Odd;Left;Left;0,2351733
4;25;1,140444;1;4;Even;Right;Right;0,1783301
5;25;1,050711;1;9;Odd;Left;Left;0,2015591
6;25;1,193842;1;6;Even;Right;Right;0,2010428
7;25;1,353222;1;8;Even;Right;Right;0,2144192
8;25;0,8939341;1;7;Odd;Left;Left;0,1788406
10;25;0,906453;1;8;Even;Right;Right;0,2125576
11;25;3,721909;1;4;Even;Right;Right;3,119351
12;25;1,137699;1;7;Odd;Left;Left;0,2990092
13;25;2,277768;1;1;Odd;Left;Left;0,4362084
14;25;1,106441;1;3;Odd;Left;Left;0,2914175
15;25;1,018625;1;6;Even;Right;Right;0,2472492
16;25;1,061094;1;9;Odd;Left;Left;0,2787854
17;25;0,9372097;1;2;Even;Right;Right;0,1988614
19;25;3,273716;1;8;Even;Right;Right;1,71994
20;25;1,049932;1;7;Odd;Left;Left;0,2349513
21;25;1,16162;1;2;Even;Right;Right;0,2338858
22;25;1,00707;1;4;Even;Right;Right;0,2792555
23;25;0,9820296;1;9;Odd;Left;Left;0,2678548
24;25;1,672168;1;6;Even;Right;Right;0,2347085
25;25;0,9967136;1;3;Odd;Left;Left;0,280578
26;25;1,418578;1;1;Odd;Left;Left;0,3026747
28;25;0,8917328;1;6;Even;Right;Right;0,2143528
29;25;0,9298452;1;4;Even;Right;Right;0,256695
30;25;0,9378241;1;9;Odd;Left;Left;0,2785859
31;25;0,9593837;1;2;Even;Right;Right;0,2221932
32;25;1,286479;1;3;Odd;Left;Left;0,2596257
33;25;1,017202;1;8;Even;Right;Right;0,2239828
34;25;1,329635;1;1;Odd;Left;Left;0,2566823
35;25;0,87444;1;7;Odd;Left;Left;0,2807655
37;25;0,7785346;1;3;Odd;Left;Left;0,2589985
38;25;0,7797171;1;1;Odd;Left;Left;0,2234614
39;25;1,002925;1;7;Odd;Left;Left;0,2452359
40;25;1,492573;1;2;Even;Right;Right;0,84074
41;25;0,8394195;1;8;Even;Right;Right;0,2017848
42;25;0,8060532;1;6;Even;Right;Right;0,2220449
43;25;0,9661921;1;9;Odd;Left;Left;0,2917699
44;25;0,9938321;1;4;Even;Right;Right;0,1660306
46;25;0,9047289;1;9;Odd;Left;Left;0,2566522
47;25;4,097913;1;2;Even;Right;Right;1,764772
48;25;1,0507;1;7;Odd;Left;Left;0,2916652
49;25;2,569872;1;3;Odd;Left;Left;1,118237
50;25;0,9610355;1;8;Even;Right;Right;0,1793914
51;25;1,237976;1;6;Even;Right;Right;0,2435846
52;25;1,049762;1;1;Odd;Left;Left;0,2345828
53;25;1,094187;1;4;Even;Right;Right;0,2029966
55;25;1,038914;1;3;Odd;Left;Left;0,1912532
56;25;0,9312703;1;2;Even;Right;Right;0,2458119
57;25;1,061168;1;6;Even;Right;Right;0,2131143
58;25;0,7051101;1;8;Even;Right;Right;0,2011021
59;25;0,8397884;1;9;Odd;Left;Left;0,1693314
60;25;1,676247;1;7;Odd;Left;Left;0,256832
61;25;1,118015;1;1;Odd;Left;Left;0,2558318
62;25;1,005606;1;4;Even;Right;Right;0,2447751
64;25;0,9938889;1;3;Odd;Left;Left;0,2781137
65;25;1,015095;1;9;Odd;Left;Left;0,2659351
66;25;0,9390589;1;8;Even;Right;Right;0,235577
67;25;2,333425;1;7;Odd;Left;Left;0,3569502
68;25;1,620372;1;6;Even;Right;Right;0,8156216
69;25;0,9807989;1;1;Odd;Left;Left;0,2427725
70;25;1,239735;1;4;Even;Right;Right;0,2451722
71;25;0,8597789;1;2;Even;Right;Right;0,2233865
73;25;1,082515;1;3;Odd;Left;Left;0,3008087
74;25;1,093296;1;7;Odd;Left;Left;0,2791975
75;25;1,005134;1;6;Even;Right;Right;0,245608
76;25;1,67634;1;1;Odd;Left;Left;0,2797358
77;25;1,519324;1;9;Odd;Left;Left;1,507935
78;25;0,9612164;1;4;Even;Right;Right;0,2678097
79;25;1,193911;1;2;Even;Right;Right;0,2806606
80;25;0,9405158;1;8;Even;Right;Right;0,2690743
82;25;1,305225;1;1;Odd;Left;Left;0,2791569
83;25;0,9512112;1;7;Odd;Left;Left;0,2801479
84;25;4,502565;1;8;Even;Right;Right;1,240335
85;25;1,81029;1;3;Odd;Left;Left;1,799174
86;25;1,653673;1;4;Even;Right;Right;0,401553
87;25;1,114822;1;6;Even;Right;Right;0,190412
88;25;2,743387;1;2;Even;Right;Right;2,173029
89;25;1,182583;1;9;Odd;Left;Left;0,2767028
91;25;0,9920634;1;2;Even;Right;Right;0,2774535
92;25;0,8590924;1;4;Even;Right;Right;0,2227901
93;25;1,184258;1;1;Odd;Left;Left;0,2589496
94;25;2,325389;1;6;Even;Right;Right;1,240525
95;25;1,552297;1;3;Odd;Left;Left;0,3564496
96;25;1,117613;1;9;Odd;Left;Left;0,2919897
97;25;2,055706;1;8;Even;Right;Right;1,081628
98;25;1,362405;1;7;Odd;Left;Left;0,3435411
100;25;1,586243;1;1;Odd;Left;Left;0,625764
101;25;0,8799379;1;9;Odd;Left;Left;0,2652276
102;25;0,9587428;1;3;Odd;Left;Left;0,2776856
103;25;1,017726;1;7;Odd;Left;Left;0,2344944
104;25;1,667929;1;6;Even;Right;Right;0,8849185
105;25;0,7594368;1;8;Even;Right;Right;0,2267313
106;25;0,7341434;1;4;Even;Right;Right;0,2009469
107;25;0,6802216;1;2;Even;Right;Right;0,2011177
109;25;0,7369099;1;4;Even;Right;Right;0,2349237
110;25;2,713493;1;7;Odd;Left;Left;0,3231797
111;25;0,9041288;1;3;Odd;Left;Left;0,2781454
112;25;0,8957413;1;1;Odd;Left;Left;0,2709155
113;25;1,11427;1;6;Even;Right;Right;0,2424254
114;25;0,8314704;1;2;Even;Right;Right;0,2375269
115;25;0,7593023;1;8;Even;Right;Right;0,2136783
116;25;1,017534;1;9;Odd;Left;Left;0,2444301
118;25;0,7716989;1;9;Odd;Left;Left;0,2355801
119;25;0,9056866;1;2;Even;Right;Right;0,2123277
120;25;1,308524;1;1;Odd;Left;Left;0,1919777
121;25;1,008115;1;4;Even;Right;Right;0,25836
122;25;1,039863;1;3;Odd;Left;Left;0,2700167
123;25;0,9519209;1;7;Odd;Left;Left;0,3140163
124;25;2,321178;1;8;Even;Right;Right;0,9597639
125;25;0,8724262;1;6;Even;Right;Right;0,1791973
127;25;1,239076;1;7;Odd;Left;Left;0,2354507
128;25;1,864786;1;4;Even;Right;Right;0,2237062
129;25;4,146209;1;3;Odd;Left;Left;0,994827
130;25;1,388547;1;8;Even;Right;Right;0,2022897
131;25;1,116525;1;2;Even;Right;Right;0,2356037
132;25;1,161673;1;1;Odd;Left;Left;0,2355437
133;25;1,752462;1;9;Odd;Left;Left;0,2574879
134;25;1,529926;1;6;Even;Right;Right;0,2132193



