Trial No;Subject ID;Reaction Time;Block No;Stimulus Number;Parity;Correct Response;Actual Response;Response Time
1;22;0,9836681;2;1;Odd;Right;Right;0,9725422
2;22;0,9163595;2;7;Odd;Right;Right;0,9054406
3;22;0,8588406;2;9;Odd;Right;Right;0,8477297
4;22;1,003308;2;8;Even;Left;Left;0,9922209
5;22;0,8159698;2;3;Odd;Right;Right;0,8050786
6;22;0,7258887;2;4;Even;Left;Left;0,7146261
7;22;0,9276547;2;6;Even;Left;Left;0,9165185
8;22;0,9613268;2;2;Even;Left;Left;0,8608848
10;22;0,9383731;2;8;Even;Left;Left;0,9269932
11;22;0,9715415;2;4;Even;Left;Left;0,9489958
12;22;1,789213;2;9;Odd;Right;Right;1,777965
13;22;1,921836;2;2;Even;Left;Left;1,910714
14;22;1,152818;2;6;Even;Left;Left;1,118872
15;22;1,061376;2;1;Odd;Right;Right;1,05036
16;22;0,9042668;2;3;Odd;Right;Right;0,8928586
17;22;0,960966;2;7;Odd;Right;Right;0,9177093
19;22;2,972801;2;8;Even;Left;Left;2,916011
20;22;7,507135;2;2;Even;Left;Left;7,495697
21;22;1,600953;2;4;Even;Left;Left;1,589036
22;22;0,7933783;2;9;Odd;Right;Right;0,6368185
23;22;0,7380662;2;7;Odd;Right;Right;0,7154779
24;22;0,9158118;2;3;Odd;Right;Right;0,9050707
25;22;0,8371221;2;1;Odd;Right;Right;0,7256079
26;22;1,037953;2;6;Even;Left;Left;1,026724
28;22;3,396487;2;3;Odd;Right;Right;3,385706
29;22;1,441711;2;2;Even;Left;Left;1,34112
30;22;1,720108;2;8;Even;Left;Left;1,664245
31;22;0,9599668;2;7;Odd;Right;Right;0,9494367
32;22;1,600388;2;6;Even;Left;Left;1,464861
33;22;1,31895;2;4;Even;Left;Left;1,218459
34;22;0,8933881;2;1;Odd;Right;Right;0,8824328
35;22;1,141269;2;9;Odd;Right;Right;1,096713
37;22;2,133559;2;8;Even;Left;Left;2,055027
38;22;0,7901033;2;1;Odd;Right;Right;0,7761047
39;22;1,678135;2;6;Even;Left;Left;1,599381
40;22;0,9938457;2;9;Odd;Right;Right;0,9822665
41;22;1,083821;2;4;Even;Left;Left;1,038937
42;22;1,180805;2;2;Even;Left;Left;1,172992
43;22;0,8595621;2;7;Odd;Right;Right;0,8375013
44;22;0,848428;2;3;Odd;Right;Right;0,8376659
46;22;0,7595667;2;9;Odd;Right;Right;0,7262027
47;22;1,127607;2;4;Even;Left;Left;1,116248
48;22;0,7599005;2;1;Odd;Right;Right;0,7040336
49;22;1,218211;2;8;Even;Left;Left;1,206788
50;22;0,7496534;2;7;Odd;Right;Right;0,7387152
51;22;0,8505136;2;6;Even;Left;Left;0,7942879
52;22;0,6818249;2;3;Odd;Right;Right;0,6703868
53;22;1,498475;2;2;Even;Left;Left;1,487123
55;22;0,8401805;2;2;Even;Left;Left;0,8171803
56;22;0,9711607;2;8;Even;Left;Left;0,959858
57;22;1,797265;2;1;Odd;Right;Right;1,787569
58;22;1,161282;2;4;Even;Left;Left;1,060611
59;22;0,9292011;2;9;Odd;Right;Right;0,8398112
60;22;0,8154078;2;3;Odd;Right;Right;0,5570483
61;22;0,736805;2;7;Odd;Right;Right;0,6361517
62;22;2,434925;2;6;Even;Left;Left;2,423372
64;22;0,91582;2;3;Odd;Right;Right;0,9043405
65;22;0,9385986;2;7;Odd;Right;Right;0,9284562
66;22;1,223742;2;8;Even;Left;Left;1,212467
67;22;1,161758;2;2;Even;Left;Left;1,150318
68;22;0,7144458;2;9;Odd;Right;Right;0,7033842
69;22;0,9833491;2;6;Even;Left;Left;0,9722546
70;22;1,138995;2;4;Even;Left;Left;0,9038655
71;22;0,782552;2;1;Odd;Right;Right;0,7712465
73;22;0,7259102;2;3;Odd;Right;Right;0,715201
74;22;2,10044;2;4;Even;Left;Left;2,077686
75;22;0,8163658;2;1;Odd;Right;Right;0,6379964
76;22;0,7946987;2;2;Even;Left;Left;0,7836711
77;22;2,222821;2;8;Even;Left;Left;2,143754
78;22;0,930645;2;7;Odd;Right;Right;0,9187754
79;22;0,8597549;2;6;Even;Left;Left;0,8488977
80;22;0,8824898;2;9;Odd;Right;Right;0,8711219
82;22;0,7928999;2;7;Odd;Right;Right;0,7816066
83;22;0,7979229;2;1;Odd;Right;Right;0,7866319
84;22;0,7822747;2;3;Odd;Right;Right;0,7713615
85;22;0,8149258;2;8;Even;Left;Left;0,8043228
86;22;6,444324;2;9;Odd;Right;Right;6,432926
87;22;1,173034;2;6;Even;Left;Left;1,161522
88;22;1,39747;2;4;Even;Left;Left;1,386042
89;22;0,8829133;2;2;Even;Left;Left;0,8721093
91;22;0,7814531;2;3;Odd;Right;Right;0,7706499
92;22;0,7548317;2;7;Odd;Right;Right;0,7487279
93;22;0,8730705;2;8;Even;Left;Left;0,861778
94;22;0,7810827;2;1;Odd;Right;Right;0,7695248
95;22;0,8929279;2;9;Odd;Right;Right;0,8812688
96;22;0,7825365;2;6;Even;Left;Left;0,7716556
97;22;0,8147131;2;4;Even;Left;Left;0,8036853
98;22;0,8047107;2;2;Even;Left;Left;0,7936052
100;22;0,8036779;2;4;Even;Left;Left;0,7924684
101;22;0,7379436;2;1;Odd;Right;Right;0,7262773
102;22;0,8159806;2;7;Odd;Right;Right;0,8042458
103;22;0,8719673;2;2;Even;Left;Left;0,860861
104;22;0,6922455;2;3;Odd;Right;Right;0,6813426
105;22;1,037273;2;8;Even;Left;Left;1,025895
106;22;0,7370896;2;9;Odd;Right;Right;0,7257672
107;22;1,517126;2;6;Even;Left;Left;1,505777
109;22;0,7714959;2;7;Odd;Right;Right;0,7605179
110;22;0,7943435;2;3;Odd;Right;Right;0,7161148
111;22;0,8379137;2;1;Odd;Right;Right;0,8275026
112;22;0,8161379;2;2;Even;Left;Left;0,8047488
113;22;0,7357013;2;9;Odd;Right;Right;0,7251819
114;22;0,9597651;2;6;Even;Left;Left;0,9492993
115;22;1,997616;2;8;Even;Left;Left;1,941818
116;22;0,7301738;2;4;Even;Left;Left;0,7191079
118;22;2,043413;2;8;Even;Left;Left;2,03221
119;22;0,7718371;2;2;Even;Left;Left;0,6940938
120;22;0,7820259;2;7;Odd;Right;Right;0,7702428
121;22;0,7810189;2;4;Even;Left;Left;0,6806694
122;22;0,7825827;2;9;Odd;Right;Right;0,7715225
123;22;0,8370499;2;1;Odd;Right;Right;0,8259943
124;22;0,9173373;2;6;Even;Left;Left;0,9060938
125;22;0,7606109;2;3;Odd;Right;Right;0,7495654
127;22;0,6919807;2;4;Even;Left;Left;0,680844
128;22;0,8930718;2;8;Even;Left;Left;0,8818257
129;22;0,680494;2;9;Odd;Right;Right;0,669598
130;22;1,01691;2;6;Even;Left;Left;1,006239
131;22;0,7595596;2;7;Odd;Right;Right;0,748507
132;22;0,8164433;2;1;Odd;Right;Right;0,8054745
133;22;0,8842116;2;2;Even;Left;Left;0,8728102
134;22;0,647049;2;3;Odd;Right;Right;0,6359631
Trial No;Subject ID;Reaction Time;Block No;Stimulus Number;Parity;Correct Response;Actual Response;Response Time
1;22;1,116232;1;1;Odd;Left;Left;0,8408713
2;22;0,9600464;1;2;Even;Right;Right;0,9486895
3;22;2,558939;1;4;Even;Right;Right;2,547691
4;22;0,8266875;1;6;Even;Right;Right;0,8155181
5;22;0,8367534;1;9;Odd;Left;Left;0,8257897
6;22;1,082214;1;3;Odd;Left;Left;1,071297
7;22;1,216457;1;7;Odd;Left;Left;1,20516
8;22;1,667496;1;8;Even;Right;Right;1,656633
10;22;1,004878;1;6;Even;Right;Right;0,9935818
11;22;0,8376379;1;4;Even;Right;Right;0,8263694
12;22;1,161754;1;9;Odd;Left;Left;1,150473
13;22;1,039022;1;2;Even;Right;Right;1,027849
14;22;1,496523;1;1;Odd;Left;Left;1,474388
15;22;0,9394504;1;7;Odd;Left;Left;0,9281474
16;22;1,116784;1;8;Even;Right;Right;1,105515
17;22;1,197536;1;3;Odd;Left;Left;1,18629
19;22;1,004993;1;4;Even;Right;Right;0,992975
20;22;0,9150159;1;8;Even;Right;Right;0,9037817
21;22;0,981384;1;1;Odd;Left;Left;0,9700284
22;22;1,128451;1;9;Odd;Left;Left;1,117561
23;22;0,939878;1;6;Even;Right;Right;0,9290433
24;22;1,161608;1;2;Even;Right;Right;1,150378
25;22;1,204022;1;7;Odd;Left;Left;1,192841
26;22;1,27336;1;3;Odd;Left;Left;1,262395
28;22;0,7356188;1;8;Even;Right;Right;0,724417
29;22;1,799674;1;3;Odd;Left;Left;1,788517
30;22;0,8381303;1;6;Even;Right;Right;0,8270866
31;22;0,9827753;1;1;Odd;Left;Left;0,9490526
32;22;0,8264565;1;2;Even;Right;Right;0,8149215
33;22;0,8042652;1;7;Odd;Left;Left;0,7930491
34;22;0,7948269;1;4;Even;Right;Left;0,7835817
35;22;2,335897;1;9;Odd;Left;Left;2,324728
37;22;0,9363251;1;2;Even;Right;Right;0,9251938
38;22;2,078478;1;1;Odd;Left;Left;1,955487
39;22;1,465385;1;3;Odd;Left;Left;1,454141
40;22;0,8958769;1;8;Even;Right;Right;0,8846066
41;22;1,016399;1;7;Odd;Left;Left;1,004941
42;22;0,9834749;1;6;Even;Right;Right;0,9723752
43;22;0,9375712;1;9;Odd;Left;Left;0,9268704
44;22;1,894458;1;4;Even;Right;Right;1,883157
46;22;0,7914987;1;3;Odd;Left;Left;0,7804695
47;22;0,8601964;1;4;Even;Right;Right;0,849106
48;22;0,8817268;1;6;Even;Right;Right;0,78064
49;22;0,8149272;1;7;Odd;Left;Left;0,7925256
50;22;1,018978;1;9;Odd;Left;Left;1,007635
51;22;1,177079;1;8;Even;Right;Left;1,166151
52;22;1,003233;1;2;Even;Right;Right;0,9594695
53;22;1,148459;1;1;Odd;Left;Left;1,137353
55;22;0,8371207;1;1;Odd;Left;Left;0,8258377
56;22;0,8722135;1;6;Even;Right;Right;0,8607802
57;22;0,7372359;1;8;Even;Right;Right;0,7265239
58;22;0,7941722;1;4;Even;Right;Right;0,7827859
59;22;1,184767;1;9;Odd;Left;Left;1,173516
60;22;0,9041985;1;3;Odd;Left;Left;0,8926237
61;22;0,8950007;1;7;Odd;Left;Left;0,8834271
62;22;1,140195;1;2;Even;Right;Right;1,128663
64;22;1,139284;1;3;Odd;Left;Left;1,128319
65;22;2,37852;1;1;Odd;Left;Left;2,367205
66;22;0,9988273;1;9;Odd;Left;Left;0,9878238
67;22;1,038574;1;7;Odd;Left;Left;1,027463
68;22;0,9385883;1;6;Even;Right;Right;0,9278541
69;22;0,9157786;1;2;Even;Right;Right;0,8391334
70;22;1,240171;1;4;Even;Right;Right;1,22871
71;22;0,7590476;1;8;Even;Right;Right;0,7479493
73;22;1,106423;1;1;Odd;Left;Left;1,095217
74;22;1,252186;1;2;Even;Right;Right;1,207673
75;22;1,00502;1;4;Even;Right;Right;0,9942713
76;22;1,040307;1;9;Odd;Left;Left;1,029202
77;22;1,137146;1;3;Odd;Left;Left;1,125862
78;22;0,7713194;1;6;Even;Right;Right;0,737075
79;22;0,9038807;1;8;Even;Right;Right;0,8704503
80;22;1,138327;1;7;Odd;Left;Left;1,127021
82;22;0,8606397;1;1;Odd;Left;Left;0,8493988
83;22;0,80349;1;4;Even;Right;Right;0,792255
84;22;0,9173695;1;8;Even;Right;Right;0,9064554
85;22;0,8945422;1;6;Even;Right;Right;0,8832959
86;22;0,9841279;1;3;Odd;Left;Left;0,9730398
87;22;0,9604532;1;9;Odd;Left;Left;0,9490579
88;22;0,7597668;1;2;Even;Right;Right;0,7487144
89;22;1,429918;1;7;Odd;Left;Left;1,41873
91;22;1,03788;1;7;Odd;Left;Left;1,026726
92;22;0,7482436;1;4;Even;Right;Right;0,7369536
93;22;1,362902;1;3;Odd;Left;Left;1,218841
94;22;1,072977;1;8;Even;Right;Right;1,061797
95;22;0,9161671;1;6;Even;Right;Right;0,9049701
96;22;1,005811;1;9;Odd;Left;Left;0,9943768
97;22;0,8038424;1;2;Even;Right;Right;0,7584164
98;22;0,9380608;1;1;Odd;Left;Left;0,927059
100;22;1,138004;1;7;Odd;Left;Left;1,127167
101;22;1,139797;1;9;Odd;Left;Left;1,128273
102;22;0,7593693;1;6;Even;Right;Right;0,7483842
103;22;0,8162263;1;4;Even;Right;Right;0,8050324
104;22;1,163736;1;3;Odd;Left;Left;1,152795
105;22;0,8936781;1;8;Even;Right;Right;0,8826203
106;22;0,8830372;1;2;Even;Right;Right;0,8722135
107;22;1,117557;1;1;Odd;Left;Left;1,10614
109;22;2,715184;1;7;Odd;Left;Left;2,703964
110;22;0,8591919;1;4;Even;Right;Right;0,8484985
111;22;1,194901;1;1;Odd;Left;Left;1,183552
112;22;0,9390429;1;8;Even;Right;Right;0,9275897
113;22;0,7818167;1;3;Odd;Left;Left;0,7704872
114;22;0,8603646;1;6;Even;Right;Right;0,8493692
115;22;1,59881;1;9;Odd;Left;Left;1,587861
116;22;0,8938099;1;2;Even;Right;Right;0,882756
118;22;0,9815647;1;7;Odd;Left;Left;0,9702471
119;22;0,7821979;1;2;Even;Right;Right;0,770946
120;22;0,838106;1;9;Odd;Left;Left;0,8267179
121;22;0,9599791;1;4;Even;Right;Right;0,9489692
122;22;0,7940614;1;8;Even;Right;Right;0,7830185
123;22;0,7592766;1;6;Even;Right;Right;0,7477449
124;22;0,7929869;1;1;Odd;Left;Left;0,7821011
125;22;0,7484663;1;3;Odd;Left;Left;0,7373666
127;22;0,7152842;1;2;Even;Right;Right;0,7042089
128;22;0,9604508;1;3;Odd;Left;Left;0,9494215
129;22;0,8152355;1;1;Odd;Left;Left;0,7827251
130;22;0,7148894;1;4;Even;Right;Right;0,7036296
131;22;0,7821132;1;6;Even;Right;Right;0,7371976
132;22;1,49689;1;9;Odd;Left;Left;1,440977
133;22;1,074542;1;7;Odd;Left;Left;1,063146
134;22;0,7379476;1;8;Even;Right;Right;0,6936225

