Trial No;Subject ID;Reaction Time;Block No;Stimulus Number;Parity;Correct Response;Actual Response;Response Time
1;30;2,759075;2;6;Even;Left;Left;2,747837
2;30;0,7815951;2;7;Odd;Right;Right;0,7693762
3;30;0,7836091;2;8;Even;Left;Left;0,7717863
4;30;0,6433648;2;1;Odd;Right;Right;0,6335335
5;30;0,7272068;2;2;Even;Left;Left;0,7159899
6;30;0,8326066;2;9;Odd;Right;Right;0,8215356
7;30;0,8713445;2;3;Odd;Right;Right;0,8604682
8;30;0,8566031;2;4;Even;Left;Left;0,8451875
10;30;0,9554929;2;2;Even;Left;Left;0,9440364
11;30;0,6372492;2;9;Odd;Right;Right;0,6268402
12;30;0,5334209;2;7;Odd;Right;Right;0,5235714
13;30;0,6824286;2;3;Odd;Right;Right;0,6713865
14;30;0,7369002;2;6;Even;Left;Left;0,7269005
15;30;0,7356632;2;4;Even;Left;Left;0,7262306
16;30;0,7380735;2;1;Odd;Right;Right;0,7269726
17;30;0,7054501;2;8;Even;Left;Left;0,6943728
19;30;0,4707547;2;3;Odd;Right;Right;0,4624384
20;30;0,7592676;2;4;Even;Left;Left;0,7478802
21;30;0,7028437;2;2;Even;Left;Left;0,6919817
22;30;0,6685522;2;7;Odd;Right;Right;0,657166
23;30;0,7363508;2;6;Even;Left;Left;0,7252359
24;30;0,6827437;2;9;Odd;Right;Right;0,6712471
25;30;0,7950052;2;1;Odd;Right;Right;0,7839708
26;30;0,7386064;2;8;Even;Left;Left;0,727746
28;30;0,622904;2;4;Even;Left;Left;0,6114511
29;30;0,6136826;2;2;Even;Left;Left;0,6030278
30;30;0,6272871;2;3;Odd;Right;Right;0,6160259
31;30;0,716714;2;9;Odd;Right;Right;0,706589
32;30;1,094587;2;7;Odd;Right;Right;1,08351
33;30;2,209974;2;6;Even;Left;Left;2,200032
34;30;0,7379775;2;1;Odd;Right;Right;0,7269168
35;30;0,7346531;2;8;Even;Left;Left;0,7235249
37;30;0,7928779;2;4;Even;Left;Left;0,7821552
38;30;0,8178957;2;9;Odd;Right;Right;0,8057336
39;30;0,8601941;2;3;Odd;Right;Right;0,8492453
40;30;0,7778631;2;8;Even;Left;Left;0,7674339
41;30;2,200357;2;7;Odd;Right;Right;2,189297
42;30;0,6954232;2;2;Even;Left;Left;0,6846131
43;30;0,734616;2;6;Even;Left;Left;0,724566
44;30;0,6911914;2;1;Odd;Right;Right;0,680997
46;30;0,8041381;2;8;Even;Left;Left;0,7930331
47;30;0,7547255;2;9;Odd;Right;Right;0,7436331
48;30;0,6467073;2;2;Even;Left;Left;0,6356724
49;30;0,9269158;2;7;Odd;Right;Right;0,9153737
50;30;0,7161949;2;6;Even;Left;Left;0,70521
51;30;0,6833338;2;1;Odd;Right;Right;0,6724253
52;30;0,7936317;2;3;Odd;Right;Right;0,7822097
53;30;0,6465124;2;4;Even;Left;Left;0,6355442
55;30;0,7512252;2;6;Even;Left;Left;0,7397636
56;30;0,7449891;2;3;Odd;Right;Right;0,7346935
57;30;0,5362663;2;1;Odd;Right;Right;0,5225141
58;30;0,6558885;2;7;Odd;Right;Right;0,6443406
59;30;0,7167783;2;2;Even;Left;Left;0,7053655
60;30;0,6931627;2;9;Odd;Right;Right;0,682512
61;30;0,7813162;2;8;Even;Left;Left;0,7700658
62;30;0,6261081;2;4;Even;Left;Left;0,6147814
64;30;0,6301134;2;1;Odd;Right;Right;0,6189471
65;30;1,007252;2;3;Odd;Right;Right;0,8503184
66;30;0,8376391;2;8;Even;Left;Left;0,8264596
67;30;0,6138251;2;2;Even;Left;Left;0,6025692
68;30;0,5459176;2;7;Odd;Right;Right;0,5345641
69;30;0,7003235;2;6;Even;Left;Left;0,6893282
70;30;0,7146015;2;9;Odd;Right;Right;0,7030768
71;30;0,947732;2;4;Even;Left;Left;0,9364774
73;30;0,5947646;2;3;Odd;Right;Right;0,5834724
74;30;0,7153665;2;9;Odd;Right;Right;0,7041211
75;30;0,7555182;2;4;Even;Left;Left;0,7456672
76;30;0,6925263;2;7;Odd;Right;Right;0,6806233
77;30;0,8152778;2;8;Even;Left;Left;0,8037378
78;30;0,7124623;2;6;Even;Left;Left;0,7015837
79;30;0,6350326;2;1;Odd;Right;Right;0,6237202
80;30;0,8595029;2;2;Even;Left;Left;0,8479
82;30;0,7030015;2;6;Even;Left;Left;0,6919793
83;30;0,7150011;2;2;Even;Left;Left;0,6859304
84;30;0,6257429;2;7;Odd;Right;Right;0,6137236
85;30;0,6921765;2;1;Odd;Right;Right;0,6810869
86;30;0,8829496;2;8;Even;Left;Left;0,8714216
87;30;0,7612581;2;4;Even;Left;Left;0,7501177
88;30;0,8153689;2;9;Odd;Right;Right;0,8043036
89;30;0,8707717;2;3;Odd;Right;Right;0,8593664
91;30;0,6603047;2;1;Odd;Right;Right;0,6491982
92;30;0,6596795;2;8;Even;Left;Left;0,6478577
93;30;0,8355091;2;7;Odd;Right;Right;0,8240054
94;30;0,7713064;2;2;Even;Left;Left;0,7607827
95;30;0,6528049;2;4;Even;Left;Left;0,6406261
96;30;1,069153;2;6;Even;Left;Left;1,061051
97;30;0,8048069;2;9;Odd;Right;Right;0,7938157
98;30;0,6505297;2;3;Odd;Right;Right;0,6391639
100;30;1,866043;2;3;Odd;Right;Right;1,85507
101;30;0,6676735;2;1;Odd;Right;Right;0,6568724
102;30;1,026982;2;9;Odd;Right;Right;1,015106
103;30;0,6906556;2;4;Even;Left;Left;0,6793951
104;30;0,6802607;2;7;Odd;Right;Right;0,6690723
105;30;1,093217;2;6;Even;Left;Left;1,082024
106;30;0,7141483;2;2;Even;Left;Left;0,7028702
107;30;0,7145446;2;8;Even;Left;Left;0,7031249
109;30;0,6805583;2;1;Odd;Right;Right;0,669498
110;30;0,5922402;2;3;Odd;Right;Right;0,5811574
111;30;0,7398634;2;4;Even;Left;Left;0,7280579
112;30;0,8464463;2;8;Even;Left;Left;0,8352696
113;30;0,805065;2;6;Even;Left;Left;0,7937874
114;30;0,6926897;2;9;Odd;Right;Right;0,6816201
115;30;0,8026814;2;2;Even;Left;Left;0,7916514
116;30;0,7302249;2;7;Odd;Right;Right;0,7176656
118;30;0,7629222;2;9;Odd;Right;Right;0,7522283
119;30;0,7490708;2;8;Even;Left;Left;0,7379439
120;30;1,438093;2;6;Even;Left;Left;1,425772
121;30;0,6369111;2;1;Odd;Right;Right;0,6257819
122;30;0,7601975;2;4;Even;Left;Left;0,748638
123;30;0,8258011;2;7;Odd;Right;Right;0,8134231
124;30;0,8582553;2;2;Even;Left;Left;0,8476292
125;30;0,6926103;2;3;Odd;Right;Right;0,6815664
127;30;0,9707744;2;8;Even;Left;Left;0,9600992
128;30;0,6257314;2;3;Odd;Right;Right;0,6144717
129;30;1,014357;2;9;Odd;Right;Left;1,003394
130;30;0,7493588;2;6;Even;Left;Left;0,7381486
131;30;0,6491305;2;1;Odd;Right;Right;0,6377739
132;30;0,8493019;2;4;Even;Left;Left;0,8370836
133;30;0,7225406;2;2;Even;Left;Left;0,7107178
134;30;0,6378044;2;7;Odd;Right;Right;0,6264248
Trial No;Subject ID;Reaction Time;Block No;Stimulus Number;Parity;Correct Response;Actual Response;Response Time
1;30;1,441093;1;4;Even;Right;Right;1,430183
2;30;0,7475761;1;8;Even;Right;Right;0,7371858
3;30;0,7035733;1;1;Odd;Left;Left;0,692297
4;30;0,646261;1;9;Odd;Left;Left;0,634957
5;30;0,7817175;1;2;Even;Right;Right;0,7706933
6;30;0,7257184;1;7;Odd;Left;Left;0,7140358
7;30;0,7918749;1;6;Even;Right;Right;0,7812337
8;30;0,7596174;1;3;Odd;Left;Left;0,7486865
10;30;0,7027785;1;3;Odd;Left;Left;0,6897951
11;30;0,7149308;1;1;Odd;Left;Left;0,7036787
12;30;0,7127445;1;6;Even;Right;Right;0,703244
13;30;0,8284833;1;9;Odd;Left;Left;0,8171336
14;30;0,748982;1;4;Even;Right;Right;0,7378919
15;30;0,8265485;1;2;Even;Right;Right;0,8154528
16;30;0,761502;1;8;Even;Right;Right;0,7503424
17;30;0,8599859;1;7;Odd;Left;Left;0,8501942
19;30;0,7386733;1;1;Odd;Left;Left;0,7274033
20;30;1,095949;1;2;Even;Right;Right;1,084242
21;30;0,7047602;1;4;Even;Right;Right;0,6931704
22;30;0,9037147;1;7;Odd;Left;Left;0,8926014
23;30;0,7472819;1;3;Odd;Left;Left;0,7359391
24;30;1,788932;1;9;Odd;Left;Left;1,776304
25;30;1,42879;1;8;Even;Right;Right;1,418839
26;30;0,7585557;1;6;Even;Right;Right;0,7480373
28;30;0,7157808;1;7;Odd;Left;Left;0,7045333
29;30;0,7041723;1;6;Even;Right;Right;0,6930224
30;30;1,297397;1;1;Odd;Left;Left;1,286498
31;30;0,8264015;1;9;Odd;Left;Left;0,8152012
32;30;0,7474054;1;4;Even;Right;Right;0,7365214
33;30;1,16316;1;2;Even;Right;Right;1,152649
34;30;1,325643;1;8;Even;Right;Left;1,314543
35;30;0,782675;1;3;Odd;Left;Left;0,7713478
37;30;0,6815279;1;1;Odd;Left;Left;0,670273
38;30;1,292796;1;8;Even;Right;Right;1,281778
39;30;0,763432;1;9;Odd;Left;Left;0,7518577
40;30;0,736596;1;2;Even;Right;Right;0,725606
41;30;0,6919119;1;7;Odd;Left;Left;0,6654621
42;30;1,049587;1;6;Even;Right;Right;1,038794
43;30;0,6730598;1;4;Even;Right;Right;0,6617073
44;30;0,7119647;1;3;Odd;Left;Left;0,7011694
46;30;0,7372888;1;4;Even;Right;Right;0,7261006
47;30;0,7152705;1;8;Even;Right;Right;0,7038078
48;30;0,7583277;1;7;Odd;Left;Left;0,7470717
49;30;0,7158116;1;2;Even;Right;Right;0,7049343
50;30;0,7026477;1;1;Odd;Left;Left;0,6914418
51;30;0,6921978;1;3;Odd;Left;Left;0,6813218
52;30;0,7574565;1;6;Even;Right;Right;0,7455093
53;30;1,4414;1;9;Odd;Left;Left;1,4295
55;30;0,7143869;1;9;Odd;Left;Left;0,7035099
56;30;0,7033677;1;1;Odd;Left;Left;0,6926825
57;30;0,735666;1;2;Even;Right;Right;0,7244563
58;30;0,7337881;1;3;Odd;Left;Left;0,7236663
59;30;0,7724076;1;4;Even;Right;Right;0,7611657
60;30;0,7518823;1;8;Even;Right;Right;0,7407587
61;30;0,6062284;1;6;Even;Right;Right;0,5950875
62;30;0,8012355;1;7;Odd;Left;Left;0,7893118
64;30;1,361464;1;9;Odd;Left;Left;1,35016
65;30;0,7031207;1;4;Even;Right;Right;0,6923594
66;30;0,6717288;1;2;Even;Right;Right;0,6604616
67;30;0,6592224;1;7;Odd;Left;Left;0,6474818
68;30;0,7937006;1;6;Even;Right;Right;0,7816215
69;30;0,7293383;1;1;Odd;Left;Left;0,7178492
70;30;0,7363232;1;8;Even;Right;Right;0,7254216
71;30;0,7938722;1;3;Odd;Left;Left;0,782811
73;30;0,7711892;1;3;Odd;Left;Left;0,7599343
74;30;0,6821011;1;6;Even;Right;Right;0,6711957
75;30;0,8394052;1;2;Even;Right;Right;0,8280683
76;30;0,6930345;1;4;Even;Right;Right;0,6818935
77;30;0,9146342;1;9;Odd;Left;Left;0,9035898
78;30;1,381884;1;1;Odd;Left;Left;1,370493
79;30;0,680315;1;7;Odd;Left;Left;0,669185
80;30;0,6929225;1;8;Even;Right;Right;0,681555
82;30;0,5778794;1;2;Even;Right;Right;0,5668802
83;30;0,7390345;1;7;Odd;Left;Left;0,7280114
84;30;0,9612523;1;6;Even;Right;Right;0,9496949
85;30;0,6218289;1;4;Even;Right;Right;0,610773
86;30;0,8376659;1;9;Odd;Left;Left;0,8266455
87;30;0,7593982;1;3;Odd;Left;Left;0,7484046
88;30;0,7943419;1;8;Even;Right;Right;0,7831668
89;30;0,7229649;1;1;Odd;Left;Left;0,7115986
91;30;0,7938316;1;3;Odd;Left;Left;0,7826843
92;30;0,8943304;1;7;Odd;Left;Left;0,8828134
93;30;0,8382385;1;6;Even;Right;Right;0,82715
94;30;0,7355999;1;1;Odd;Left;Left;0,7243182
95;30;0,6680006;1;2;Even;Right;Right;0,6569833
96;30;0,6357888;1;4;Even;Right;Right;0,6242968
97;30;0,7600843;1;9;Odd;Left;Left;0,7485813
98;30;0,7259382;1;8;Even;Right;Right;0,7146974
100;30;0,8168681;1;2;Even;Right;Right;0,8061196
101;30;0,7691811;1;7;Odd;Left;Left;0,7568039
102;30;0,7479933;1;6;Even;Right;Right;0,7375907
103;30;0,6149135;1;4;Even;Right;Right;0,6038042
104;30;0,6700374;1;8;Even;Right;Right;0,6589657
105;30;0,704393;1;1;Odd;Left;Left;0,6931151
106;30;1,754375;1;3;Odd;Left;Left;1,743708
107;30;0,7150794;1;9;Odd;Left;Left;0,7036117
109;30;0,6782351;1;9;Odd;Left;Left;0,6670847
110;30;0,7131115;1;7;Odd;Left;Left;0,7018671
111;30;0,7370272;1;2;Even;Right;Right;0,7255948
112;30;0,7228283;1;1;Odd;Left;Left;0,71243
113;30;0,7590011;1;6;Even;Right;Right;0,7480523
114;30;0,6835591;1;8;Even;Right;Right;0,6724401
115;30;0,6702402;1;4;Even;Right;Right;0,6590287
116;30;0,9345972;1;3;Odd;Left;Left;0,9235809
118;30;0,7512882;1;4;Even;Right;Right;0,7399938
119;30;0,8147635;1;1;Odd;Left;Left;0,8036042
120;30;0,7034091;1;3;Odd;Left;Left;0,6922776
121;30;0,6363919;1;7;Odd;Left;Left;0,6253259
122;30;0,7911141;1;6;Even;Right;Right;0,7809963
123;30;0,898914;1;9;Odd;Left;Left;0,8861517
124;30;0,7300923;1;8;Even;Right;Right;0,7188372
125;30;0,6805675;1;2;Even;Right;Right;0,6685403
127;30;0,6984589;1;7;Odd;Left;Left;0,6896229
128;30;0,6714728;1;1;Odd;Left;Left;0,660358
129;30;1,758012;1;9;Odd;Left;Left;1,746381
130;30;0,6761273;1;4;Even;Right;Right;0,6648446
131;30;0,7147321;1;6;Even;Right;Right;0,7037268
132;30;0,8382538;1;2;Even;Right;Right;0,8272416
133;30;0,770695;1;3;Odd;Left;Left;0,7368861
134;30;0,7562094;1;8;Even;Right;Right;0,7446083

